aX,aY,aZ,gX,gY,gZ
1.661,0.663,0.561,-115.601,28.015,-0.671
1.742,1.025,0.550,-143.433,13.916,4.944
1.607,1.831,0.717,-177.612,-32.776,15.381
1.336,2.168,0.900,-158.569,-56.335,22.949
0.911,2.330,1.107,-110.718,-65.369,29.175
-0.067,2.202,1.330,25.574,-5.066,12.451
-0.529,1.901,1.159,86.975,66.711,-16.846
-0.835,1.021,0.287,121.948,208.618,-106.323
-0.713,0.590,-0.273,100.098,255.066,-161.560
-0.428,0.261,-0.675,4.028,236.816,-262.878
-0.229,-0.119,-0.906,-31.921,174.622,-288.879
-0.435,-0.437,-0.722,10.254,67.566,-248.413
-1.121,-1.023,-0.688,82.703,70.374,-197.571
-1.355,-1.950,-0.984,169.617,110.413,-153.076
-1.163,-4.000,-1.698,242.493,206.238,-153.259
-0.820,-4.000,-1.928,183.167,201.477,-171.875
-0.399,-3.881,-1.620,19.958,116.699,-159.241
-0.246,-3.567,-1.319,11.841,81.421,-134.827
-0.084,-3.036,-1.094,67.017,45.105,-73.425
-0.008,-2.635,-0.992,52.673,29.724,-42.908
-0.141,-2.074,-0.813,-9.155,-7.019,-1.648
-0.253,-0.856,-0.497,-1.648,-10.742,9.705
-0.050,-0.206,-0.474,36.987,8.911,10.437
0.026,-0.118,-0.524,50.903,23.193,3.845
0.073,-0.124,-0.643,45.654,46.082,-14.832
0.177,-0.214,-0.887,38.757,46.204,-26.550
0.267,-0.454,-0.948,31.189,29.419,-43.396
0.284,-0.657,-0.970,27.466,18.433,-47.058
0.277,-0.848,-0.869,10.986,8.667,-41.870
0.265,-0.852,-0.760,5.371,2.197,-36.194
0.230,-0.845,-0.552,7.080,-14.954,-26.611
0.136,-0.829,-0.464,7.751,-18.005,-23.437
0.091,-0.755,-0.338,6.592,-15.137,-23.376
0.098,-0.756,-0.306,8.484,-6.409,-31.860
0.132,-0.815,-0.318,10.315,-2.686,-35.522
0.196,-0.860,-0.397,11.047,6.348,-37.048
0.219,-0.918,-0.443,14.282,10.376,-36.316
0.303,-1.057,-0.556,13.855,15.747,-33.386
0.334,-1.094,-0.591,9.033,15.808,-30.518
0.388,-1.108,-0.616,-0.610,8.240,-25.330
0.383,-1.089,-0.593,-5.737,-3.784,-19.470
0.375,-1.080,-0.538,-7.812,-9.216,-16.602
0.330,-1.051,-0.457,-11.292,-16.785,-11.841
0.309,-1.012,-0.434,-12.756,-16.541,-6.287
0.292,-0.943,-0.416,-7.874,-10.376,-4.028
0.287,-0.969,-0.460,1.099,-1.709,-0.305
0.289,-0.978,-0.495,2.319,2.014,0.122
0.296,-0.968,-0.520,-0.549,4.883,-0.793
0.304,-0.943,-0.560,-1.526,4.456,-0.610
0.287,-0.936,-0.559,-2.930,0.061,1.221
0.272,-0.923,-0.552,-3.723,-2.441,1.770
0.254,-0.873,-0.507,-5.005,-5.066,3.052
0.240,-0.840,-0.494,-5.249,-5.371,4.272
0.222,-0.794,-0.481,-4.272,-3.174,4.944
0.219,-0.783,-0.486,-4.089,-1.404,3.906
0.214,-0.768,-0.490,-2.136,1.587,1.648
0.213,-0.775,-0.495,-0.793,2.502,-15.503
0.211,-0.789,-0.484,0.061,3.174,-2.563
0.211,-0.810,-0.478,-0.610,2.014,-4.150
0.199,-0.830,-0.459,-0.916,2.014,-3.906
0.211,-0.834,-0.465,2.380,4.028,-2.319
0.218,-0.828,-0.492,4.333,4.761,-0.610
0.231,-0.804,-0.524,5.005,3.784,0.488
0.236,-0.791,-0.521,4.456,2.563,-0.122
0.229,-0.789,-0.496,1.404,-0.549,-1.831
0.225,-0.788,-0.485,-0.183,-1.343,-2.625
0.227,-0.793,-0.485,0.610,-0.671,-2.563
0.235,-0.807,-0.513,2.197,1.404,-2.869
0.242,-0.816,-0.526,2.563,2.075,-3.357
0.248,-0.845,-0.551,3.357,2.686,-4.150
0.247,-0.857,-0.561,2.258,2.136,-4.517
0.239,-0.870,-0.566,-1.770,-1.221,-4.883
0.229,-0.876,-0.562,-3.113,-2.869,-4.578
0.207,-0.875,-0.542,-2.991,-4.578,-4.272
0.204,-0.865,-0.531,-3.479,-4.883,-3.052
0.183,-0.827,-0.500,-2.625,-5.310,-1.282
0.168,-0.805,-0.480,1.587,-3.296,0.183
0.167,-0.806,-0.474,3.113,-1.953,-0.183
0.160,-0.819,-0.473,3.906,0.793,-1.099
0.154,-0.829,-0.477,3.418,2.686,-2.930
0.156,-0.864,-0.471,2.380,3.967,-3.357
0.148,-0.879,-0.496,0.183,4.944,-3.723
0.144,-0.891,-0.499,-2.075,4.333,-4.211
0.141,-0.947,-0.518,-6.714,1.953,-5.493
0.140,-0.987,-0.541,-12.329,0.793,-4.944
0.138,-0.979,-0.535,-25.085,-0.488,-2.258
0.150,-0.975,-0.537,-22.644,-2.625,3.113
0.146,-0.955,-0.536,-19.653,-3.906,8.423
0.122,-0.934,-0.530,-11.353,-2.625,20.508
0.116,-0.932,-0.536,-6.897,-0.488,24.902
0.113,-0.934,-0.543,-4.517,0.610,30.884
0.110,-0.932,-0.532,-6.592,0.061,32.471
0.109,-0.913,-0.524,-13.794,-1.587,33.813
0.128,-0.839,-0.499,-15.076,-1.465,33.081
0.128,-0.822,-0.492,-14.954,-1.038,31.372
0.147,-0.856,-0.520,-8.301,1.892,25.757
0.160,-0.913,-0.531,-4.333,2.808,23.071
0.179,-1.044,-0.555,-3.174,-0.122,21.606
0.190,-1.080,-0.566,-8.179,-3.967,23.499
0.184,-1.037,-0.503,-26.245,-11.780,25.574
0.185,-0.982,-0.474,-29.541,-13.550,29.663
0.188,-0.931,-0.444,-26.550,-13.489,31.128
0.187,-0.945,-0.427,-17.700,-9.399,35.522
0.191,-0.953,-0.430,-14.404,-6.226,38.452
0.210,-0.956,-0.454,-12.268,-4.089,39.917
0.225,-0.948,-0.446,-13.367,-4.517,39.185
0.225,-0.970,-0.432,-15.686,-6.165,38.208
0.237,-0.981,-0.424,-19.470,-6.958,34.119
0.250,-0.968,-0.425,-22.400,-7.263,32.410
0.273,-0.966,-0.427,-23.743,-8.911,29.785
0.300,-0.969,-0.426,-23.193,-11.414,29.419
0.316,-0.984,-0.387,-22.278,-16.113,29.602
0.339,-0.962,-0.365,-21.301,-17.090,30.029
0.372,-0.973,-0.344,-17.517,-18.311,32.104
0.366,-0.963,-0.329,-18.250,-19.836,34.241
0.347,-0.898,-0.321,-25.024,-18.677,38.696
0.345,-0.846,-0.318,-26.184,-15.381,41.138
0.366,-0.786,-0.342,-20.325,-10.559,44.495
0.406,-0.769,-0.351,-12.817,-8.179,44.800

-0.696,-1.364,-0.214,-92.712,-3.906,-237.732
-0.721,-1.324,-0.006,-20.996,57.556,-145.569
-0.757,-1.774,-0.274,194.458,109.070,-110.535
-0.678,-2.687,-0.862,275.024,174.622,-100.647
-0.222,-3.171,-1.030,244.324,169.312,-117.554
-0.003,-4.000,-1.080,96.985,80.322,-161.743
-0.115,-4.000,-0.868,0.488,13.123,-163.635
-0.617,-3.261,-0.235,-147.461,-88.501,-98.816
-0.971,-2.456,-0.106,-167.175,-94.910,-44.434
-1.099,-0.592,-0.120,-84.839,-9.399,57.800
-0.940,0.316,-0.316,-18.311,21.790,74.646
-0.529,0.935,-0.539,93.079,55.664,53.711
-0.455,0.751,-0.613,115.906,62.988,20.325
-0.457,-0.113,-0.824,79.529,54.382,-53.406
-0.409,-1.276,-0.810,8.423,29.541,-97.534
-0.358,-1.774,-0.779,-20.142,18.738,-95.154
-0.139,-1.943,-0.772,-47.424,23.254,-45.288
-0.007,-1.696,-0.751,-49.866,25.818,-14.282
0.005,-1.292,-0.561,-42.419,12.146,26.611
-0.099,-1.099,-0.517,-22.705,6.470,43.091
-0.160,-0.647,-0.500,-21.301,14.526,44.250
-0.110,-0.410,-0.543,-2.258,35.767,33.630
0.002,-0.246,-0.648,7.629,41.321,20.325
0.077,-0.472,-0.706,22.888,37.354,-7.141
0.088,-0.587,-0.717,21.301,31.433,-15.442
0.109,-0.727,-0.742,7.629,22.339,-22.888
0.120,-0.776,-0.754,2.563,18.433,-24.597
0.126,-0.841,-0.760,-0.366,8.545,-24.414
0.122,-0.865,-0.744,0.977,2.991,-22.522
0.109,-0.888,-0.677,-1.343,-7.141,-17.334
0.065,-0.850,-0.616,-6.531,-12.207,-12.512
0.054,-0.841,-0.584,-6.836,-13.000,-10.864
0.041,-0.877,-0.552,-3.052,-11.597,-8.118
0.040,-0.913,-0.554,-0.183,-10.010,-4.272
0.050,-0.948,-0.554,2.380,-7.935,-2.258
0.052,-0.952,-0.557,2.502,-7.935,1.953
0.036,-0.915,-0.554,1.099,-7.812,3.723
0.024,-0.850,-0.546,-0.061,-6.409,6.470
0.014,-0.837,-0.548,0.793,-6.592,6.775
-0.009,-0.832,-0.530,-0.610,-6.592,5.066
-0.021,-0.823,-0.524,-1.892,-5.493,4.028
-0.032,-0.790,-0.555,1.038,-0.732,2.686
-0.028,-0.789,-0.612,8.728,4.028,1.892
-0.025,-0.803,-0.629,10.559,4.944,1.831
-0.022,-0.798,-0.657,8.423,3.418,1.404
-0.026,-0.786,-0.663,6.287,1.404,1.526
-0.028,-0.766,-0.664,4.395,-0.610,1.648
-0.047,-0.749,-0.646,4.150,-4.211,-0.061
-0.052,-0.780,-0.622,5.005,-4.883,-2.930
-0.048,-0.795,-0.628,5.127,-4.211,-3.723
-0.033,-0.820,-0.643,4.761,-4.395,-3.967
-0.029,-0.826,-0.637,3.967,-5.493,-3.540
-0.050,-0.825,-0.611,0.427,-8.728,-2.258
-0.053,-0.820,-0.598,-0.854,-9.216,-1.465
-0.051,-0.810,-0.581,0.244,-7.935,-0.549
-0.038,-0.814,-0.591,3.479,-6.348,1.343
-0.029,-0.814,-0.588,3.662,-5.798,1.831
-0.033,-0.810,-0.593,2.258,-7.080,2.747
-0.028,-0.795,-0.593,1.648,-6.531,2.319
-0.016,-0.792,-0.599,1.648,-4.761,2.319
-0.006,-0.803,-0.605,2.563,-4.639,2.014
0.003,-0.820,-0.622,1.953,-6.348,2.014
0.010,-0.837,-0.641,0.366,-8.240,2.197
0.023,-0.852,-0.638,-1.526,-12.024,3.052
0.021,-0.851,-0.636,-2.502,-13.916,4.089
0.018,-0.830,-0.613,-4.089,-17.883,5.310
0.014,-0.820,-0.604,-4.578,-18.921,5.798
0.002,-0.801,-0.601,-4.211,-19.287,6.958
0.004,-0.800,-0.608,-3.296,-18.616,7.019
0.007,-0.819,-0.605,-1.831,-18.311,6.714
0.001,-0.833,-0.604,-2.136,-18.677,6.836
-0.004,-0.862,-0.601,-2.625,-18.250,7.019
-0.006,-0.884,-0.608,-3.174,-17.273,7.751
0.000,-0.915,-0.613,-3.296,-16.602,8.911
0.025,-0.908,-0.625,-2.441,-15.259,12.268
0.030,-0.902,-0.625,-1.831,-15.747,13.672
0.036,-0.896,-0.618,-0.793,-17.944,16.113
0.044,-0.894,-0.602,0.305,-19.836,18.677
0.049,-0.907,-0.594,0.488,-20.874,19.897
0.044,-0.911,-0.593,-2.747,-22.766,21.545
0.048,-0.911,-0.575,-4.333,-22.888,21.912
0.052,-0.911,-0.556,-6.348,-23.499,23.010
0.062,-0.914,-0.554,-7.507,-23.315,23.804
0.081,-0.905,-0.549,-9.094,-21.545,25.452
0.082,-0.902,-0.551,-8.362,-20.752,26.550
0.092,-0.901,-0.552,-5.127,-19.043,29.907
0.103,-0.893,-0.545,-3.540,-18.066,32.227
0.125,-0.866,-0.542,-2.319,-16.724,35.889
0.134,-0.848,-0.536,-3.418,-16.724,36.865
0.144,-0.830,-0.536,-5.920,-17.883,36.377
0.150,-0.830,-0.538,-7.507,-18.738,35.828
0.156,-0.832,-0.532,-11.169,-22.217,35.645
0.160,-0.840,-0.516,-12.878,-25.879,37.170
0.156,-0.845,-0.504,-15.259,-27.222,37.781
0.171,-0.846,-0.498,-22.644,-28.442,39.246
0.201,-0.834,-0.491,-25.635,-28.748,40.833
0.259,-0.830,-0.509,-24.475,-31.128,46.448
0.267,-0.837,-0.520,-21.362,-34.607,51.575
0.267,-0.822,-0.503,-19.897,-42.786,57.922
0.267,-0.812,-0.481,-20.935,-45.593,57.068
0.265,-0.814,-0.433,-25.391,-45.227,51.453
0.273,-0.813,-0.417,-26.672,-42.725,49.194
0.307,-0.747,-0.416,-21.423,-34.668,49.316
0.326,-0.710,-0.430,-14.709,-29.602,49.011
0.359,-0.713,-0.462,-2.869,-23.499,43.457
0.374,-0.759,-0.475,0.061,-22.522,39.429
0.396,-0.803,-0.489,-2.747,-25.269,34.912
0.400,-0.794,-0.477,-6.042,-27.100,33.142
0.405,-0.754,-0.452,-12.024,-28.625,30.457
0.405,-0.756,-0.423,-13.611,-29.053,23.376
0.408,-0.761,-0.418,-13.550,-28.076,20.630
0.409,-0.710,-0.416,-13.123,-23.804,19.958
0.407,-0.686,-0.410,-11.414,-21.362,20.142
0.407,-0.693,-0.414,-3.540,-16.113,18.494
0.416,-0.722,-0.418,0.244,-14.404,16.968
0.475,-0.746,-0.411,4.456,-10.315,17.822
0.501,-0.741,-0.419,4.272,-9.277,18.616
0.512,-0.728,-0.409,-1.160,-11.719,17.334
0.508,-0.717,-0.395,-3.784,-11.108,14.404
1.746,0.980,-0.035,-63.293,-18.921,-85.388
1.651,1.095,0.075,-86.853,-36.255,-92.529
1.099,1.247,0.251,-97.229,-71.045,-99.060
0.760,1.270,0.372,-58.044,-65.613,-122.314
0.194,1.232,0.448,-26.184,-43.335,-135.437
-0.107,1.157,0.498,52.612,29.785,-158.020
-0.109,0.841,0.383,96.558,83.069,-168.030
-0.355,-0.259,-0.382,160.156,167.603,-203.491
-0.447,-1.092,-0.770,164.368,184.204,-209.595
-0.683,-1.897,-1.251,151.306,180.786,-205.811
-0.706,-2.471,-1.812,135.437,111.206,-168.518
-0.648,-2.150,-1.595,104.004,22.339,-103.821
-0.993,-1.753,-0.803,92.651,1.709,-101.440
-1.402,-2.161,-0.832,113.159,39.185,-155.273
-1.422,-2.485,-0.935,121.948,77.942,-185.059
-1.349,-3.152,-1.181,95.764,115.845,-185.608
-0.964,-3.591,-1.428,8.362,116.760,-104.797
-0.514,-2.388,-1.557,-23.560,107.117,-39.978
-0.369,-0.712,-1.207,-20.508,75.378,43.152
-0.272,-0.254,-1.000,7.996,48.950,57.068
-0.121,0.020,-0.903,59.448,-6.653,40.649
-0.034,0.035,-0.856,52.124,-12.634,28.687
0.012,-0.004,-0.721,12.024,-0.916,10.681
0.013,-0.093,-0.739,4.517,1.404,-1.831
0.047,-0.324,-0.794,-0.183,3.296,-24.109
0.091,-0.415,-0.833,-6.226,7.629,-27.893
0.149,-0.403,-0.826,-7.019,7.812,-25.879
0.157,-0.445,-0.752,-3.052,-0.793,-20.752
0.146,-0.491,-0.722,1.099,-7.263,-18.921
0.137,-0.620,-0.642,6.897,-10.986,-19.409
0.137,-0.702,-0.616,6.775,-8.911,-24.170
0.128,-0.840,-0.585,1.831,-5.371,-25.330
0.133,-0.898,-0.588,-0.793,-2.991,-24.414
0.149,-0.918,-0.654,-3.052,3.967,-18.372
0.174,-0.873,-0.660,-1.892,6.165,-14.648
0.192,-0.759,-0.620,2.869,4.700,-5.676
0.160,-0.736,-0.612,6.287,4.639,-1.465
0.147,-0.713,-0.624,9.827,7.202,1.160
0.135,-0.708,-0.678,13.062,14.771,1.099
0.127,-0.720,-0.727,12.695,18.433,-0.427
0.130,-0.743,-0.851,12.878,23.254,-3.479
0.142,-0.750,-0.899,13.489,23.193,-4.333
0.157,-0.780,-0.941,10.071,17.029,-4.517
0.151,-0.768,-0.935,5.676,10.254,-3.906
0.112,-0.692,-0.844,-3.113,-3.235,-0.549
0.088,-0.655,-0.784,-5.249,-6.470,0.305
0.052,-0.620,-0.702,-5.432,-6.836,0.305
0.045,-0.622,-0.684,-4.333,-1.465,-2.258
0.049,-0.678,-0.688,-2.930,1.953,-3.479
0.056,-0.689,-0.715,-4.089,7.385,-3.540
0.072,-0.694,-0.721,-3.723,8.911,-1.892
0.086,-0.689,-0.783,2.258,9.644,2.991
0.095,-0.692,-0.815,6.226,8.972,4.028
0.105,-0.713,-0.840,9.521,6.470,5.005
0.098,-0.718,-0.841,8.362,4.211,5.615
0.091,-0.709,-0.842,2.686,-0.732,4.333
0.081,-0.669,-0.823,-0.305,-2.930,3.357
0.053,-0.631,-0.773,-3.967,-6.042,1.831
0.039,-0.617,-0.760,-4.089,-6.897,1.282
0.049,-0.608,-0.740,-1.587,-5.188,0.610
0.052,-0.605,-0.738,0.000,-4.456,0.977
0.051,-0.596,-0.736,0.671,-4.761,0.610
0.048,-0.602,-0.733,0.977,-4.639,-1.953
0.052,-0.630,-0.717,0.427,-3.845,-3.052
0.065,-0.651,-0.715,-0.122,-1.709,-2.563
0.071,-0.662,-0.729,0.549,-0.061,-1.892
0.088,-0.666,-0.759,2.075,1.160,-0.671
0.093,-0.661,-0.759,1.282,1.343,0.122
0.096,-0.632,-0.778,-0.122,0.854,0.305
0.103,-0.620,-0.781,-0.122,0.122,-0.793
0.090,-0.616,-0.767,-1.465,-2.686,-2.747
0.080,-0.620,-0.764,-1.648,-2.075,-4.028
0.076,-0.645,-0.768,-0.305,-1.282,-4.333
0.079,-0.678,-0.782,1.221,-0.671,-4.028
0.086,-0.687,-0.785,1.343,-0.977,-3.357
0.088,-0.704,-0.767,0.793,-2.991,-2.014
0.083,-0.713,-0.755,0.244,-3.601,-0.671
0.072,-0.705,-0.756,0.732,-3.662,1.221
0.069,-0.721,-0.757,2.319,-3.296,1.343
0.057,-0.764,-0.763,4.150,-3.784,2.502
0.050,-0.771,-0.771,3.784,-3.967,4.761
0.026,-0.779,-0.774,2.258,-4.211,6.226
0.015,-0.785,-0.774,2.197,-3.967,8.362
0.018,-0.780,-0.783,1.892,-3.418,10.193
0.028,-0.733,-0.789,0.183,-2.991,13.977
0.024,-0.702,-0.788,-0.549,-3.418,15.686
0.018,-0.646,-0.771,-1.648,-5.310,17.639
0.007,-0.644,-0.771,-1.892,-6.104,17.822
0.001,-0.665,-0.776,-3.845,-4.700,16.479
0.000,-0.702,-0.777,-8.911,-5.249,18.433
-0.016,-0.759,-0.779,-12.878,-6.165,21.057
-0.001,-0.704,-0.775,-17.639,-6.287,27.710
0.010,-0.645,-0.775,-15.747,-6.531,28.442
0.054,-0.615,-0.751,-5.371,-8.179,25.269
0.065,-0.621,-0.752,-1.282,-8.606,24.353
0.080,-0.646,-0.759,3.052,-9.766,23.743
0.085,-0.661,-0.750,-0.488,-11.597,20.874
0.085,-0.677,-0.752,-2.686,-12.146,19.836
0.111,-0.687,-0.761,-6.042,-12.756,19.104
0.142,-0.720,-0.736,-10.681,-15.015,18.188
0.152,-0.721,-0.716,-14.893,-16.113,19.165
0.153,-0.707,-0.701,-19.409,-13.977,22.461
0.169,-0.664,-0.706,-17.578,-11.963,24.109
0.194,-0.645,-0.720,-10.193,-8.911,25.940
0.202,-0.642,-0.738,-6.470,-8.179,25.879
0.224,-0.651,-0.738,-4.089,-10.864,23.804
0.224,-0.646,-0.741,-5.310,-14.160,21.667
0.227,-0.651,-0.735,-10.864,-16.724,16.602
0.229,-0.662,-0.737,-14.709,-20.020,12.512
0.244,-0.660,-0.732,-14.526,-22.400,10.986
0.278,-0.657,-0.696,-13.550,-27.100,10.193
0.271,-0.663,-0.675,-13.489,-28.870,11.414
0.264,-0.706,-0.648,-11.108,-28.198,12.817
0.253,-0.720,-0.643,-9.644,-26.062,12.878
0.265,-0.769,-0.652,-8.301,-20.996,15.686
0.264,-0.789,-0.668,-8.423,-19.226,18.250
0.269,-0.752,-0.710,-10.681,-18.494,22.156
0.276,-0.709,-0.720,-10.986,-19.409,21.545
0.295,-0.665,-0.679,-10.071,-23.743,17.883
-1.871,-3.740,-0.923,-15.503,70.129,-338.013
-1.730,-4.000,-1.286,-48.584,82.703,-301.453
-0.937,-2.718,-1.366,50.110,123.352,-135.986
-0.635,-2.028,-1.260,149.536,127.991,10.925
-0.539,-2.232,-1.426,273.621,94.910,27.771
-0.502,-2.356,-1.571,154.724,32.715,0.061
-0.286,-1.792,-1.321,54.504,4.456,-16.602
-0.306,-0.800,-0.718,-104.187,-62.317,-39.185
-0.331,-0.516,-0.470,-124.573,-71.777,-42.358
-0.330,-0.460,-0.366,-45.349,-14.282,-26.672
-0.324,-0.642,-0.531,25.146,52.307,-5.920
-0.029,-0.926,-1.089,104.492,103.882,13.306
0.038,-0.989,-1.354,112.122,111.145,22.583
0.174,-1.038,-1.572,92.102,85.266,23.621
0.137,-1.016,-1.482,61.584,45.410,16.296
-0.032,-0.833,-0.994,-16.357,-42.664,-1.831
-0.100,-0.734,-0.755,-42.542,-63.232,-6.165
-0.171,-0.500,-0.454,-56.335,-67.322,-9.644
-0.171,-0.411,-0.379,-37.109,-42.664,-10.132
-0.083,-0.299,-0.346,-19.775,-23.987,-9.583
-0.034,-0.313,-0.426,3.479,1.038,-11.230
-0.017,-0.333,-0.492,8.118,9.277,-14.099
0.100,-0.500,-0.599,13.489,25.513,-18.555
0.118,-0.553,-0.695,9.705,26.917,-20.935
0.187,-0.586,-0.714,8.301,28.137,-20.264
0.203,-0.617,-0.738,6.836,26.245,-20.447
0.245,-0.693,-0.802,6.592,24.841,-19.775
0.278,-0.741,-0.873,3.784,20.081,-15.076
0.283,-0.752,-0.895,3.113,15.808,-11.780
0.285,-0.762,-0.901,2.747,1.343,-6.042
0.268,-0.760,-0.879,0.366,-4.700,-4.333
0.205,-0.699,-0.810,-5.249,-10.498,-1.465
0.183,-0.664,-0.778,-6.042,-10.010,-2.625
0.158,-0.630,-0.745,-3.174,-6.592,-2.869
0.143,-0.615,-0.735,2.930,-2.014,-2.625
0.137,-0.620,-0.725,4.883,0.488,-2.991
0.127,-0.673,-0.747,7.324,5.798,-4.456
0.129,-0.718,-0.774,7.935,7.874,-5.127
0.142,-0.774,-0.835,5.493,9.033,-2.930
0.153,-0.754,-0.854,3.418,8.179,-0.183
0.145,-0.686,-0.816,-1.953,1.465,2.930
0.134,-0.654,-0.778,-4.150,-2.380,3.296
0.111,-0.589,-0.725,-5.493,-3.906,2.136
0.107,-0.564,-0.724,-3.113,-0.366,0.000
0.114,-0.536,-0.731,-0.305,2.075,-0.305
0.111,-0.573,-0.763,5.188,5.615,-0.916
0.112,-0.591,-0.784,5.920,6.592,-1.953
0.138,-0.639,-0.823,3.662,8.667,-4.333
0.147,-0.659,-0.843,2.075,8.301,-4.456
0.141,-0.689,-0.864,-0.732,4.333,-2.136
0.137,-0.672,-0.863,-1.343,1.038,15.381
0.125,-0.613,-0.827,-1.404,-4.395,2.380
0.112,-0.574,-0.789,1.526,-6.348,2.075
0.086,-0.583,-0.765,2.075,-6.714,0.549
0.073,-0.588,-0.744,1.770,-4.333,-2.014
0.081,-0.597,-0.742,1.709,-2.441,-3.174
0.090,-0.600,-0.761,1.343,0.000,-3.845
0.096,-0.596,-0.765,1.709,0.793,-3.723
0.102,-0.607,-0.770,3.357,0.488,-3.357
0.109,-0.615,-0.774,3.601,0.610,-2.930
0.110,-0.619,-0.776,2.136,-0.244,-2.136
0.108,-0.616,-0.773,1.282,-0.610,-1.892
0.109,-0.615,-0.774,0.977,-0.793,-2.258
0.112,-0.618,-0.775,0.610,-0.916,-2.502
0.117,-0.630,-0.786,1.343,-1.831,-2.502
0.110,-0.638,-0.782,1.343,-2.136,-2.502
0.109,-0.635,-0.775,-0.793,-2.502,-1.892
0.106,-0.623,-0.781,-1.404,-2.380,-1.099
0.096,-0.626,-0.773,-0.305,-3.357,-0.977
0.088,-0.635,-0.758,-1.526,-3.479,-1.282
0.088,-0.639,-0.757,-1.892,-2.930,-1.526
0.083,-0.645,-0.759,-1.648,-1.892,-1.099
0.083,-0.654,-0.770,0.366,-0.305,0.183
0.087,-0.656,-0.776,0.854,0.183,0.916
0.096,-0.663,-0.799,1.648,0.732,1.648
0.099,-0.670,-0.810,1.221,-0.305,1.465
0.103,-0.688,-0.819,-0.610,-2.197,2.563
0.106,-0.683,-0.821,-1.953,-2.930,3.357
0.109,-0.680,-0.810,-2.869,-4.944,4.944
0.104,-0.686,-0.810,-3.601,-5.554,5.798
0.104,-0.681,-0.812,-4.089,-6.836,7.019
0.102,-0.673,-0.802,-4.395,-7.874,7.568
0.092,-0.657,-0.786,-4.639,-9.094,9.338
0.092,-0.654,-0.777,-4.089,-9.766,9.521
0.094,-0.659,-0.757,-4.211,-9.644,9.827
0.072,-0.674,-0.766,-4.333,-9.583,10.254
0.095,-0.695,-0.784,-5.066,-9.338,9.827
0.105,-0.690,-0.779,-6.470,-10.437,10.620
0.104,-0.688,-0.758,-8.728,-13.916,13.000
0.102,-0.688,-0.753,-8.728,-14.587,13.550
0.107,-0.690,-0.744,-7.446,-15.137,14.526
0.108,-0.710,-0.715,-6.470,-14.526,16.113
0.113,-0.696,-0.715,-3.540,-10.681,20.935
0.122,-0.682,-0.732,-1.526,-8.057,22.461
0.143,-0.674,-0.768,1.587,-6.348,23.804
0.160,-0.671,-0.780,1.221,-6.897,23.987
0.165,-0.661,-0.789,-1.526,-10.620,22.522
0.163,-0.658,-0.783,-3.479,-12.695,21.484
0.165,-0.665,-0.777,-4.639,-14.404,19.043
0.176,-0.680,-0.770,-8.911,-17.273,18.127
0.171,-0.683,-0.761,-12.085,-19.226,17.578
0.171,-0.688,-0.734,-17.334,-22.095,16.785
0.165,-0.685,-0.712,-19.897,-23.987,16.602
0.155,-0.654,-0.661,-20.386,-24.780,18.372
0.154,-0.638,-0.639,-17.517,-23.071,19.714
0.128,-0.652,-0.620,-10.071,-16.724,24.170
0.139,-0.659,-0.635,-7.446,-12.207,25.024
0.171,-0.648,-0.666,-7.324,-5.615,24.963
0.193,-0.637,-0.687,-8.179,-3.784,24.414
0.213,-0.594,-0.719,-8.301,-3.235,21.790
0.243,-0.628,-0.732,-8.606,-3.906,21.057
0.250,-0.647,-0.762,-7.812,-6.775,19.470
0.268,-0.690,-0.761,-9.338,-9.094,19.836
0.263,-0.700,-0.751,-11.353,-11.658,20.996
0.256,-0.708,-0.733,-12.512,-14.343,24.109
0.263,-0.716,-0.716,-11.597,-14.648,25.696
0.269,-0.713,-0.693,-12.024,-13.550,28.015
0.267,-0.702,-0.697,-12.573,-11.658,28.870
0.304,-0.694,-0.714,-10.254,-7.874,27.466
1.809,0.650,0.462,-88.196,-28.564,-94.482
1.696,0.694,0.584,-98.694,-23.743,-108.154
1.311,0.732,0.646,-102.844,-3.540,-137.634
1.043,0.777,0.595,-92.285,11.963,-156.067
0.713,0.751,0.398,-34.668,63.599,-192.139
0.564,0.626,0.248,0.549,89.233,-203.674
0.479,0.001,-0.144,54.871,118.408,-194.519
0.501,-0.036,-0.344,61.035,117.859,-168.213
0.329,0.289,-0.579,76.782,81.848,-94.482
-0.099,0.452,-0.602,104.919,53.284,-61.523
-1.345,0.115,-0.543,170.898,13.672,-37.109
-1.979,-0.414,-0.761,203.979,65.186,-80.872
-2.443,-1.658,-1.257,253.174,116.089,-117.188
-2.515,-2.508,-1.753,251.648,194.458,-172.791
-2.228,-4.000,-2.484,209.961,215.088,-149.780
-0.910,-4.000,-2.479,74.158,180.847,-81.848
-0.581,-3.232,-2.144,10.132,131.714,-54.932
-0.662,-1.030,-1.369,-83.679,30.090,6.226
-0.584,0.164,-0.981,-99.182,-2.563,23.926
-0.270,1.683,-0.291,-83.130,-39.001,37.842
-0.389,1.862,0.244,40.222,4.028,44.128
-0.696,0.969,-0.556,126.770,51.697,1.343
-0.559,0.232,-0.875,119.568,109.863,-76.355
-0.400,-0.904,-1.363,75.317,102.783,-88.257
-0.293,-1.643,-1.688,1.526,47.729,-74.280
-0.232,-1.686,-1.613,-18.860,15.930,-56.152
-0.167,-1.326,-1.048,-18.738,-29.114,-9.766
-0.224,-1.102,-0.833,-6.104,-56.946,27.710
-0.270,-0.584,-0.519,-2.686,-57.556,33.264
-0.177,-0.110,-0.346,-2.747,-29.053,26.306
-0.172,-0.001,-0.342,-1.404,-10.803,14.709
-0.093,-0.206,-0.483,8.667,14.954,-14.221
-0.044,-0.347,-0.596,13.306,20.142,-23.682
0.005,-0.639,-0.852,14.160,27.161,-31.799
0.021,-0.773,-0.938,8.484,26.917,-32.288
0.040,-0.900,-1.067,-3.662,19.043,-26.855
0.068,-0.906,-1.091,-7.629,11.414,-22.827
0.093,-0.792,-0.988,-13.855,-6.470,-11.475
0.069,-0.751,-0.905,-13.794,-16.724,-2.563
-0.003,-0.713,-0.811,-12.085,-16.541,-0.488
0.008,-0.714,-0.814,-5.554,-9.949,0.916
0.009,-0.718,-0.830,-3.967,-7.446,2.686
-0.010,-0.707,-0.843,-3.967,-5.676,7.080
-0.022,-0.690,-0.844,-4.395,-5.859,8.240
-0.023,-0.660,-0.868,-3.906,-4.272,8.423
-0.020,-0.663,-0.869,-1.709,-5.432,8.362
-0.022,-0.650,-0.869,-2.014,-6.836,9.644
-0.037,-0.609,-0.841,-2.991,-10.132,11.169
-0.045,-0.590,-0.824,-1.526,-10.376,10.620
-0.051,-0.561,-0.795,-0.061,-8.911,10.132
-0.065,-0.560,-0.803,1.404,-6.531,8.728
-0.073,-0.559,-0.816,1.709,-4.822,6.653
-0.063,-0.570,-0.823,2.380,-2.502,1.770
-0.055,-0.568,-0.830,2.380,-1.221,0.122
-0.043,-0.563,-0.847,1.038,-0.122,-0.671
-0.044,-0.571,-0.847,-2.502,-2.808,-0.977
-0.046,-0.569,-0.834,-3.906,-4.150,-0.427
-0.039,-0.556,-0.833,-4.028,-5.371,-0.916
-0.046,-0.555,-0.818,-3.235,-6.348,-1.038
-0.067,-0.574,-0.786,0.000,-6.653,0.244
-0.071,-0.587,-0.777,1.526,-6.042,0.854
-0.073,-0.615,-0.793,2.258,-4.272,0.793
-0.069,-0.621,-0.803,2.441,-3.235,0.549
-0.044,-0.619,-0.798,2.380,-3.235,0.732
-0.059,-0.587,-0.783,0.244,-5.066,3.174
-0.064,-0.570,-0.779,-0.488,-5.127,3.540
-0.079,-0.573,-0.795,-0.183,-4.578,4.150
-0.082,-0.579,-0.819,1.160,-3.662,4.028
-0.073,-0.604,-0.839,2.014,-2.625,3.662
-0.071,-0.615,-0.832,-0.427,-4.089,4.333
-0.071,-0.622,-0.821,-2.747,-5.005,5.493
-0.082,-0.593,-0.814,-5.310,-6.714,8.606
-0.084,-0.581,-0.814,-4.883,-7.080,9.521
-0.088,-0.586,-0.802,-3.845,-8.057,9.949
-0.080,-0.600,-0.802,-3.601,-7.629,9.705
-0.072,-0.604,-0.804,-3.479,-7.568,9.888
-0.064,-0.596,-0.798,-3.662,-6.775,9.705
-0.056,-0.595,-0.836,-2.014,-4.700,7.812
-0.031,-0.630,-0.836,-1.343,-4.272,7.141
-0.006,-0.643,-0.870,-2.930,-5.554,8.972
-0.002,-0.624,-0.872,-3.723,-7.019,10.254
0.010,-0.622,-0.861,-3.723,-11.414,11.719
0.021,-0.629,-0.855,-4.761,-17.578,13.245
-0.004,-0.624,-0.833,-6.592,-20.447,14.038
-0.026,-0.613,-0.786,-9.338,-23.010,14.771
-0.033,-0.613,-0.759,-8.667,-22.888,15.442
-0.066,-0.641,-0.739,-7.080,-21.912,16.602
-0.069,-0.658,-0.753,-7.507,-19.958,17.029
-0.033,-0.666,-0.781,-8.423,-15.076,18.066
0.004,-0.658,-0.809,-7.629,-14.709,18.738
0.025,-0.663,-0.808,-6.836,-15.381,19.104
0.039,-0.649,-0.798,-7.935,-18.860,22.766
0.038,-0.636,-0.781,-9.399,-21.057,25.391
0.041,-0.608,-0.732,-10.925,-23.315,25.635
0.048,-0.622,-0.694,-12.085,-20.996,25.085
0.055,-0.646,-0.687,-13.672,-18.372,24.902
0.083,-0.676,-0.730,-18.799,-13.306,26.123
0.095,-0.706,-0.749,-19.897,-13.062,26.794
0.141,-0.734,-0.780,-22.583,-15.076,29.297
0.148,-0.718,-0.796,-21.729,-17.944,32.043
0.159,-0.732,-0.789,-18.066,-19.836,31.189
0.176,-0.793,-0.766,-13.916,-20.935,32.776
0.183,-0.797,-0.770,-14.587,-20.813,35.583
0.181,-0.771,-0.754,-17.700,-20.447,40.344
0.175,-0.765,-0.745,-19.043,-20.447,45.044
0.164,-0.789,-0.722,-22.095,-19.043,47.974
0.170,-0.783,-0.695,-29.541,-17.212,57.434
0.168,-0.794,-0.677,-35.278,-15.869,62.561
0.159,-0.802,-0.647,-46.875,-12.146,68.542
0.181,-0.803,-0.636,-52.124,-9.644,69.824
0.210,-0.755,-0.641,-60.303,-3.906,73.242
0.205,-0.669,-0.692,-58.655,14.648,67.749
0.256,-0.629,-0.755,-34.729,2.258,59.265
0.272,-0.666,-0.722,-20.081,-3.662,49.255
0.294,-0.731,-0.729,-17.578,-6.592,49.561
0.298,-0.726,-0.691,-20.691,-13.794,49.561
0.295,-0.724,-0.675,-25.818,-17.029,47.424
0.313,-0.731,-0.631,-34.546,-18.372,42.542
0.317,-0.759,-0.622,-36.255,-15.076,43.396
-2.587,-2.308,-0.796,94.482,51.331,-236.084
-2.977,-3.321,-1.055,71.411,60.852,-202.332
-2.337,-4.000,-1.663,104.980,126.282,-132.080
-1.986,-3.712,-1.955,137.695,116.638,-66.345
-1.615,-2.682,-1.765,128.479,85.815,-29.907
-1.133,-1.502,-1.208,65.735,27.832,-23.010
-0.831,-0.750,-0.817,24.597,15.015,-30.029
-0.343,0.956,-0.438,-28.992,30.396,-42.725
-0.069,1.221,-0.269,-27.405,64.697,-49.805
-0.314,0.714,-0.494,15.076,62.134,-81.055
-0.401,0.240,-0.843,64.392,71.533,-68.604
-0.482,-0.635,-1.411,106.140,65.735,-24.963
-0.538,-0.934,-1.550,105.347,46.265,-6.226
-0.538,-1.229,-1.583,88.684,3.235,20.569
-0.514,-1.197,-1.541,71.838,-10.193,27.649
-0.486,-0.833,-1.154,24.475,-24.292,22.095
-0.412,-0.591,-0.997,3.723,-25.146,0.000
-0.246,-0.087,-0.682,-20.569,-24.353,1.953
-0.211,0.114,-0.623,-24.719,-20.935,-10.376
-0.164,0.156,-0.580,-14.282,-9.949,-15.991
-0.181,-0.048,-0.649,3.235,-3.723,-19.958
-0.211,-0.203,-0.735,12.878,-1.343,-19.043
-0.285,-0.552,-0.891,21.545,1.526,-15.564
-0.309,-0.693,-0.946,20.874,1.404,-10.254
-0.308,-0.789,-0.978,12.207,-4.456,3.357
-0.289,-0.707,-0.920,3.906,-12.207,10.803
-0.226,-0.639,-0.903,0.671,-14.954,12.939
-0.180,-0.479,-0.872,-2.197,-18.372,14.160
-0.171,-0.434,-0.847,-1.892,-19.348,13.000
-0.160,-0.416,-0.811,1.892,-18.860,8.789
-0.194,-0.423,-0.779,2.136,-17.212,6.531
-0.238,-0.481,-0.779,2.380,-9.949,1.526
-0.228,-0.515,-0.786,1.709,-5.432,1.160
-0.219,-0.522,-0.822,-1.465,-0.183,4.333
-0.213,-0.475,-0.875,-1.587,2.991,6.836
-0.186,-0.492,-0.935,2.563,0.732,2.563
-0.187,-0.504,-0.929,3.052,-0.366,1.892
-0.184,-0.527,-0.926,2.625,-2.197,4.639
-0.191,-0.509,-0.888,-0.061,-4.639,6.165
-0.192,-0.490,-0.890,-0.854,-6.104,5.798
-0.195,-0.480,-0.862,-2.197,-6.897,6.592
-0.190,-0.472,-0.863,-2.075,-5.798,7.935
-0.193,-0.495,-0.875,-1.404,-6.042,8.728
-0.189,-0.503,-0.875,-1.404,-6.714,7.202
-0.186,-0.513,-0.854,-2.991,-6.775,6.653
-0.185,-0.514,-0.856,-4.028,-5.188,5.859
-0.182,-0.508,-0.861,-3.723,-4.395,5.737
-0.180,-0.512,-0.850,-2.930,-4.333,5.249
-0.180,-0.486,-0.842,-4.150,-3.601,6.836
-0.169,-0.466,-0.841,-4.822,-3.174,7.019
-0.168,-0.454,-0.849,-6.531,-4.211,7.385
-0.163,-0.434,-0.857,-6.226,-4.395,8.545
-0.163,-0.428,-0.851,-3.113,-5.066,7.263
-0.164,-0.451,-0.848,-1.953,-4.700,6.287
-0.166,-0.467,-0.853,-1.587,-3.540,6.165
-0.155,-0.480,-0.875,-2.747,-3.235,5.859
-0.154,-0.492,-0.892,-4.089,-3.113,5.005
-0.146,-0.500,-0.905,-4.150,-3.845,5.127
-0.121,-0.517,-0.922,-2.380,-5.859,6.409
-0.119,-0.514,-0.919,-2.197,-7.629,7.568
-0.137,-0.504,-0.882,-3.357,-10.864,10.681
-0.148,-0.504,-0.867,-4.395,-11.230,10.620
-0.149,-0.504,-0.854,-4.639,-10.620,10.315
-0.132,-0.509,-0.855,-4.517,-8.606,9.399
-0.120,-0.503,-0.872,-4.272,-7.812,9.705
-0.137,-0.530,-0.869,-4.028,-9.460,10.925
-0.137,-0.534,-0.866,-4.333,-10.742,11.414
-0.147,-0.542,-0.852,-6.653,-10.498,11.841
-0.147,-0.538,-0.841,-9.094,-9.155,13.550
-0.148,-0.528,-0.838,-10.071,-9.033,14.465
-0.144,-0.507,-0.840,-10.132,-9.155,16.052
-0.140,-0.504,-0.849,-7.690,-8.606,16.357
-0.145,-0.541,-0.839,-4.395,-9.338,16.296
-0.147,-0.557,-0.850,-4.761,-8.423,19.775
-0.138,-0.549,-0.849,-5.188,-8.423,20.630
-0.150,-0.541,-0.835,-6.287,-9.277,20.935
-0.161,-0.539,-0.825,-7.080,-9.216,21.118
-0.165,-0.563,-0.808,-8.606,-7.568,21.118
-0.161,-0.572,-0.808,-10.559,-6.653,22.095
-0.163,-0.545,-0.851,-14.771,-4.700,24.414
-0.160,-0.547,-0.873,-17.517,-6.653,21.973
-0.175,-0.544,-0.875,-20.081,-9.399,21.118
-0.180,-0.513,-0.850,-24.292,-13.062,19.165
-0.178,-0.520,-0.843,-24.109,-13.245,18.372
-0.178,-0.535,-0.849,-19.409,-12.695,20.386
-0.134,-0.549,-0.847,-13.245,-11.658,26.123
-0.134,-0.561,-0.850,-10.498,-11.475,28.687
-0.115,-0.569,-0.831,-10.376,-14.404,31.311
-0.120,-0.591,-0.828,-10.864,-15.442,32.471
-0.134,-0.636,-0.838,-12.268,-17.273,33.264
-0.127,-0.642,-0.840,-12.878,-17.761,33.142
-0.086,-0.611,-0.848,-14.465,-17.639,31.799
-0.061,-0.594,-0.817,-16.479,-19.348,27.039
-0.043,-0.616,-0.802,-18.250,-20.081,24.780
-0.026,-0.653,-0.812,-23.193,-19.348,24.109
0.002,-0.667,-0.824,-24.353,-18.921,24.170
0.029,-0.665,-0.842,-22.522,-17.517,27.832
0.043,-0.655,-0.856,-15.381,-17.700,30.457
0.052,-0.645,-0.857,-12.329,-18.738,30.273
0.054,-0.650,-0.848,-10.010,-19.714,30.579
0.027,-0.696,-0.840,-11.475,-21.423,30.762
0.053,-0.741,-0.840,-19.043,-24.109,32.349
0.056,-0.731,-0.831,-23.804,-25.757,33.875
0.064,-0.736,-0.813,-30.151,-28.625,38.879
0.078,-0.728,-0.808,-30.945,-29.846,41.504
0.081,-0.732,-0.775,-31.799,-32.593,46.082
0.082,-0.727,-0.752,-32.043,-32.776,50.537
0.113,-0.749,-0.773,-31.006,-32.471,52.307
0.163,-0.806,-0.829,-30.090,-37.170,58.228
0.196,-0.832,-0.845,-30.945,-43.518,63.477
0.196,-0.760,-0.783,-35.828,-61.218,78.491
0.163,-0.707,-0.721,-37.292,-67.810,84.473
0.100,-0.608,-0.595,-36.804,-67.627,84.045
0.097,-0.562,-0.554,-18.738,-50.964,67.871
0.152,-0.567,-0.547,-26.062,-41.382,57.068
0.223,-0.641,-0.624,-24.475,-27.344,39.978
0.247,-0.676,-0.665,-26.917,-23.865,35.522
0.290,-0.657,-0.722,-31.677,-25.940,35.889
0.294,-0.660,-0.724,-31.677,-30.151,38.940
0.976,1.022,0.414,20.020,49.744,-77.087
0.772,0.921,0.337,46.448,67.627,-80.750
0.566,0.616,0.010,84.961,121.704,-103.577
0.481,0.446,-0.208,86.914,136.230,-115.845
0.242,0.223,-0.512,69.946,136.841,-130.798
-0.015,0.146,-0.679,58.167,122.803,-138.062
-0.401,-0.152,-0.813,44.373,77.209,-167.480
-1.328,-0.385,-0.792,45.166,62.195,-180.908
-2.043,-1.233,-0.815,74.951,82.031,-215.942
-2.187,-1.740,-0.917,99.609,114.929,-226.929
-1.919,-2.201,-1.280,142.395,179.932,-213.013
-1.757,-2.194,-1.477,150.452,192.871,-191.345
-1.614,-2.316,-1.649,125.183,173.218,-163.147
-1.153,-2.500,-1.824,89.966,147.522,-160.522
-0.725,-2.150,-1.534,2.747,78.186,-141.418
-0.677,-1.929,-1.300,-24.902,44.495,-115.906
-0.578,-1.580,-1.003,-16.174,4.150,-47.119
-0.508,-1.390,-0.977,0.488,-3.418,-12.512
-0.415,-0.819,-0.969,13.733,-6.226,43.640
-0.372,-0.518,-0.931,10.986,-7.751,62.195
-0.440,-0.158,-0.863,9.827,-21.973,62.622
-0.434,-0.159,-0.828,23.071,-20.203,38.330
-0.365,-0.395,-0.800,24.048,-18.616,25.513
-0.313,-0.583,-0.724,6.714,-19.836,4.700
-0.297,-0.609,-0.690,-5.798,-19.043,-2.197
-0.307,-0.526,-0.641,-24.231,-13.062,-4.272
-0.308,-0.476,-0.641,-14.282,-1.465,2.991
-0.255,-0.423,-0.682,-3.723,4.517,6.897
-0.216,-0.447,-0.756,10.559,11.841,15.076
-0.189,-0.452,-0.808,13.184,15.137,16.724
-0.160,-0.466,-0.917,10.681,18.738,9.094
-0.138,-0.483,-0.971,8.972,19.958,1.953
-0.089,-0.530,-1.000,4.089,15.564,-10.376
-0.073,-0.583,-0.990,-0.183,11.475,-14.465
-0.080,-0.697,-0.963,-6.592,3.662,-18.677
-0.081,-0.741,-0.944,-9.888,-2.930,-15.442
-0.076,-0.762,-0.908,-10.376,-4.456,-10.376
-0.079,-0.712,-0.865,-8.484,-5.798,-0.671
-0.095,-0.672,-0.837,-7.874,-6.897,3.906
-0.139,-0.604,-0.790,-6.592,-7.446,9.766
-0.149,-0.581,-0.784,-5.188,-5.676,7.080
-0.127,-0.615,-0.824,-0.549,-2.258,4.028
-0.106,-0.677,-0.845,0.244,-1.770,2.380
-0.099,-0.671,-0.861,-0.610,-1.465,3.906
-0.092,-0.650,-0.841,-1.892,-4.639,6.104
-0.100,-0.633,-0.825,-2.563,-8.240,9.644
-0.095,-0.576,-0.804,-2.380,-8.301,10.315
-0.098,-0.556,-0.755,-0.305,-9.094,10.132
-0.117,-0.556,-0.768,1.709,-7.324,9.338
-0.098,-0.581,-0.764,4.700,-2.625,5.615
-0.087,-0.589,-0.779,4.761,-0.061,4.028
-0.082,-0.602,-0.795,1.831,2.441,2.014
-0.072,-0.614,-0.839,1.099,2.991,2.258
-0.047,-0.616,-0.865,3.113,0.549,4.028
-0.056,-0.614,-0.862,3.662,-2.136,5.798
-0.074,-0.579,-0.844,4.028,-5.737,8.850
-0.073,-0.568,-0.820,3.967,-6.470,8.606
-0.090,-0.549,-0.793,3.601,-6.897,7.812
-0.094,-0.552,-0.791,4.272,-5.737,7.080
-0.091,-0.575,-0.819,5.493,-2.930,4.456
-0.084,-0.587,-0.841,5.798,-1.648,3.418
-0.080,-0.626,-0.857,5.920,-2.441,2.380
-0.090,-0.639,-0.857,4.700,-3.357,2.747
-0.087,-0.622,-0.848,1.282,-4.822,5.371
-0.085,-0.605,-0.845,-0.183,-5.859,6.775
-0.099,-0.568,-0.829,-2.319,-9.338,9.460
-0.107,-0.555,-0.817,-2.563,-10.437,11.475
-0.110,-0.548,-0.823,-1.831,-9.827,12.024
-0.104,-0.563,-0.838,-1.526,-8.728,12.817
-0.107,-0.576,-0.847,-2.686,-9.155,13.123
-0.100,-0.601,-0.857,-4.822,-10.681,13.550
-0.090,-0.618,-0.867,-6.348,-11.719,30.396
-0.073,-0.635,-0.875,-9.521,-14.404,19.653
-0.069,-0.619,-0.880,-12.329,-18.799,23.621
-0.069,-0.628,-0.874,-12.268,-21.301,24.353
-0.083,-0.639,-0.854,-15.747,-25.574,25.513
-0.090,-0.647,-0.851,-17.334,-25.513,25.818
-0.086,-0.672,-0.848,-20.874,-27.405,26.978
-0.078,-0.675,-0.834,-27.283,-33.203,30.029
-0.056,-0.681,-0.827,-31.006,-36.926,31.799
-0.056,-0.703,-0.811,-37.659,-43.823,38.879
-0.061,-0.699,-0.798,-40.466,-46.265,43.884
-0.071,-0.695,-0.734,-41.809,-49.377,54.993
-0.091,-0.687,-0.702,-40.527,-48.340,62.378
-0.109,-0.615,-0.682,-33.447,-37.598,76.599
-0.100,-0.559,-0.726,-13.000,-23.804,76.721
-0.078,-0.603,-0.738,-2.686,-20.142,71.228
-0.037,-0.750,-0.753,4.211,-16.724,63.660
-0.018,-0.796,-0.770,-0.183,-17.273,61.951
0.001,-0.810,-0.784,-6.958,-19.287,55.664
0.054,-0.808,-0.757,-21.606,-23.865,52.124
0.080,-0.815,-0.699,-28.625,-27.954,50.049
0.099,-0.859,-0.681,-29.785,-28.320,51.392
0.119,-0.895,-0.661,-31.677,-25.208,56.885
0.122,-0.915,-0.669,-31.982,-22.217,61.584
0.167,-0.964,-0.714,-29.907,-17.273,70.984
0.175,-0.953,-0.749,-29.480,-20.325,77.576
0.242,-0.843,-0.769,-28.931,-22.949,75.928
0.278,-0.738,-0.702,-34.180,-29.907,66.895
0.321,-0.712,-0.670,-36.499,-31.738,62.378
0.345,-0.685,-0.639,-37.048,-29.907,56.824
0.351,-0.670,-0.631,-36.560,-26.367,58.044
0.357,-0.649,-0.658,-28.442,-19.104,65.918
0.351,-0.683,-0.683,-20.752,-16.907,69.580
0.371,-0.845,-0.719,-7.202,-16.724,73.364
0.413,-0.852,-0.749,-18.127,-22.766,75.562
0.480,-0.753,-0.752,-27.466,-29.968,76.660
0.457,-0.675,-0.694,-34.546,-43.884,75.195
0.462,-0.620,-0.646,-32.227,-47.913,73.242
0.415,-0.577,-0.556,-23.987,-48.950,73.914
0.411,-0.617,-0.547,-15.503,-45.349,76.294
0.440,-0.765,-0.613,0.000,-37.903,83.130
0.476,-0.829,-0.647,-14.648,-42.542,88.501
0.512,-0.839,-0.641,-11.841,-49.011,90.637
0.523,-0.665,-0.518,-34.668,-60.730,88.440
0.509,-0.589,-0.464,-41.321,-62.866,85.144
0.489,-0.567,-0.355,-37.842,-59.692,83.801
0.491,-0.677,-0.335,-26.184,-53.101,87.158
0.558,-0.842,-0.372,3.296,-34.790,107.483
-1.258,-0.891,-0.802,0.183,0.549,-239.319
-1.474,-0.821,-0.788,-0.061,3.845,-238.708
-1.877,-0.820,-0.941,63.110,37.781,-220.337
-1.917,-1.130,-1.141,118.591,74.585,-211.060
-1.672,-2.587,-1.629,183.594,123.901,-231.995
-1.386,-3.418,-1.786,159.119,114.929,-260.254
-0.634,-4.000,-1.700,21.729,61.340,-288.452
-0.310,-3.913,-1.342,-39.734,35.889,-258.057
0.045,-2.874,-0.942,-49.683,29.175,-110.901
0.172,-2.442,-0.957,22.156,31.860,44.373
-0.171,-1.578,-0.872,44.495,15.808,98.694
-0.301,-1.144,-0.811,44.922,1.892,133.240
-0.349,-0.256,-0.742,20.569,-6.409,124.573
-0.235,0.322,-0.698,14.771,10.254,94.482
-0.020,0.408,-0.656,18.860,9.033,71.960
0.026,0.376,-0.618,24.841,5.676,47.607
0.040,-0.008,-0.651,27.161,1.160,6.104
0.039,-0.210,-0.670,18.311,1.648,-10.254
0.016,-0.512,-0.732,-3.357,4.761,-33.386
0.036,-0.578,-0.780,-13.611,4.456,-35.583
0.076,-0.593,-0.779,-11.536,2.319,-30.701
0.037,-0.608,-0.751,5.615,-0.183,-13.794
0.027,-0.624,-0.761,17.212,2.686,-4.700
0.031,-0.674,-0.832,28.015,9.888,5.615
0.056,-0.711,-0.877,25.024,10.315,5.127
0.090,-0.732,-0.899,18.005,3.052,-1.404
0.077,-0.701,-0.823,-1.099,-3.174,-3.235
0.043,-0.646,-0.767,-5.066,-6.592,-2.136
0.031,-0.598,-0.696,0.305,-5.188,2.991
0.026,-0.567,-0.694,6.531,-3.113,5.859
0.026,-0.593,-0.688,12.146,-0.427,8.362
0.032,-0.617,-0.694,15.747,3.540,10.193
0.053,-0.639,-0.720,18.188,8.667,11.108
0.080,-0.665,-0.762,19.775,13.428,10.986
0.099,-0.678,-0.802,19.226,15.747,10.925
0.119,-0.673,-0.845,13.916,14.771,9.705
0.145,-0.629,-0.889,9.888,11.780,7.690
0.146,-0.599,-0.874,5.859,6.897,5.615
0.135,-0.575,-0.837,1.465,2.014,4.150
0.113,-0.557,-0.807,-1.831,-1.343,3.235
0.103,-0.542,-0.798,-2.808,-2.441,2.014
0.110,-0.541,-0.806,-1.404,-1.587,-0.427
0.118,-0.568,-0.818,2.441,-0.061,-3.845
0.119,-0.626,-0.839,3.479,0.671,-3.357
0.118,-0.637,-0.847,3.723,1.343,-2.869
0.124,-0.648,-0.841,3.418,1.282,-2.869
0.123,-0.654,-0.831,2.014,-0.610,-1.709
0.108,-0.612,-0.811,2.197,-1.282,0.366
0.102,-0.607,-0.790,3.296,-1.831,1.770
0.094,-0.622,-0.775,4.272,-1.770,1.038
0.090,-0.629,-0.771,3.540,-0.610,0.488
0.093,-0.612,-0.778,2.869,1.221,0.244
0.104,-0.599,-0.807,3.906,3.723,-0.183
0.108,-0.605,-0.824,5.127,3.906,-0.061
0.112,-0.654,-0.844,4.639,1.099,-0.122
0.111,-0.664,-0.844,2.136,-1.221,0.061
0.117,-0.650,-0.816,-1.343,-5.005,1.221
0.098,-0.638,-0.790,-2.319,-6.775,2.197
0.088,-0.580,-0.769,-1.282,-6.104,5.615
0.088,-0.571,-0.762,2.930,-3.601,6.592
0.092,-0.571,-0.777,4.456,-2.136,6.531
0.106,-0.594,-0.794,3.601,-0.183,4.456
0.113,-0.596,-0.808,2.197,-0.061,2.930
0.128,-0.592,-0.823,0.488,-1.404,1.343
0.121,-0.590,-0.831,0.427,-2.808,1.709
0.109,-0.580,-0.807,1.099,-5.737,3.113
0.102,-0.574,-0.780,1.770,-6.592,3.601
0.087,-0.572,-0.739,1.343,-6.104,3.296
0.082,-0.574,-0.733,1.282,-3.662,1.587
0.082,-0.593,-0.750,1.343,-1.770,0.977
0.088,-0.613,-0.760,1.282,0.122,0.488
0.097,-0.601,-0.783,1.160,0.366,0.671
0.102,-0.594,-0.782,2.136,-0.244,1.892
0.096,-0.580,-0.773,2.930,-0.488,2.808
0.100,-0.579,-0.777,3.845,-0.488,2.380
0.102,-0.577,-0.767,2.930,-1.038,2.197
0.100,-0.587,-0.753,0.549,-1.465,0.000
0.106,-0.597,-0.760,-0.732,-0.854,-1.221
0.125,-0.611,-0.796,-1.038,0.427,-1.038
0.128,-0.618,-0.802,-1.404,-0.244,15.320
0.119,-0.622,-0.814,-1.831,-1.953,0.244
0.125,-0.621,-0.811,-1.343,-2.380,-0.610
0.126,-0.631,-0.806,-0.671,-2.625,-0.488
0.115,-0.621,-0.791,-0.977,-2.563,1.221
0.116,-0.612,-0.785,-0.732,-2.258,1.526
0.114,-0.599,-0.792,0.000,-0.427,2.014
0.124,-0.596,-0.813,1.099,0.671,2.441
0.135,-0.583,-0.832,2.075,0.305,2.930
0.135,-0.583,-0.827,1.709,-0.549,2.563
0.127,-0.606,-0.816,-0.244,-2.441,-0.122
0.129,-0.623,-0.813,-0.854,-3.357,-1.404
0.123,-0.655,-0.808,-1.343,-4.028,-0.671
0.119,-0.640,-0.802,-1.831,-4.333,1.282
0.118,-0.622,-0.793,-1.343,-4.150,2.502
0.117,-0.606,-0.792,0.488,-3.540,4.944
0.114,-0.607,-0.793,0.488,-3.784,5.493
0.113,-0.597,-0.792,-1.160,-4.028,5.310
0.112,-0.600,-0.789,-2.319,-4.517,4.028
0.112,-0.620,-0.789,-3.235,-4.761,3.540
0.114,-0.641,-0.797,-4.089,-4.761,4.028
0.121,-0.647,-0.801,-4.395,-4.944,5.066
0.127,-0.645,-0.808,-5.371,-5.554,7.996
0.134,-0.648,-0.805,-6.409,-6.287,9.216
0.132,-0.638,-0.794,-8.850,-8.789,11.169
0.126,-0.635,-0.782,-10.376,-10.132,13.794
0.123,-0.633,-0.771,-10.742,-10.803,15.198
0.131,-0.635,-0.769,-11.047,-12.329,17.822
0.141,-0.627,-0.790,-10.681,-14.221,19.653
0.160,-0.631,-0.805,-9.827,-19.165,22.034
0.174,-0.643,-0.802,-9.644,-21.851,23.010
0.183,-0.653,-0.801,-13.306,-26.367,25.696
0.181,-0.630,-0.792,-20.325,-30.884,22.583
0.172,-0.597,-0.755,-22.949,-31.494,21.118
0.148,-0.572,-0.695,-22.766,-29.968,18.494
0.154,-0.580,-0.678,-18.677,-26.001,18.738
0.229,-0.623,-0.735,-8.118,-19.897,23.437
0.286,-0.644,-0.782,-4.578,-22.339,29.053
0.265,-0.648,-0.800,-1.831,-38.330,44.739
0.240,-0.665,-0.778,-0.854,-42.847,49.622
-2.795,-2.025,-0.920,-88.074,46.265,-375.244
-2.937,-2.006,-1.351,-137.695,54.138,-384.155
-2.821,-1.409,-1.617,-12.756,82.397,-325.439
-2.621,-1.715,-1.587,291.260,89.905,-166.260
-1.893,-3.019,-1.783,385.315,92.285,-103.699
-0.788,-3.823,-2.007,313.904,85.449,-63.782
-0.424,-3.696,-1.736,188.721,60.608,-65.430
-0.438,-2.754,-1.135,-42.114,0.366,-47.852
-0.510,-2.123,-1.027,-97.168,-8.728,-21.301
-0.628,-1.002,-0.905,-101.807,-12.146,30.579
-0.549,-0.649,-0.928,-62.561,3.357,92.896
-0.446,-0.153,-0.975,21.973,21.301,107.483
-0.199,0.234,-0.885,61.096,19.714,116.028
-0.122,0.402,-0.807,57.556,12.207,104.614
-0.098,0.510,-0.728,35.889,5.371,59.570
-0.127,0.395,-0.689,29.785,10.315,31.860
-0.076,-0.068,-0.830,24.780,21.423,-7.446
-0.050,-0.298,-0.914,19.470,23.010,-19.165
-0.051,-0.507,-0.990,10.986,23.193,-26.306
-0.064,-0.699,-1.038,-8.179,13.855,-28.870
-0.056,-0.700,-0.924,-11.780,-3.845,-16.663
-0.087,-0.669,-0.843,-7.141,-12.085,-5.859
-0.147,-0.620,-0.740,6.165,-16.052,13.916
-0.152,-0.581,-0.719,10.498,-12.817,18.311
-0.145,-0.519,-0.711,10.864,-5.310,16.846
-0.136,-0.499,-0.730,8.545,-1.953,7.263
-0.100,-0.501,-0.779,4.089,5.371,0.305
-0.086,-0.532,-0.819,0.122,9.460,-11.230
-0.050,-0.593,-0.827,-1.831,10.010,-13.550
-0.024,-0.619,-0.839,-1.038,8.301,-12.268
-0.018,-0.635,-0.827,-0.244,5.432,-9.460
-0.051,-0.618,-0.813,0.183,-0.061,-2.319
-0.066,-0.589,-0.816,0.000,-0.610,0.305
-0.076,-0.578,-0.820,3.357,4.456,2.502
-0.075,-0.587,-0.847,6.226,7.446,2.197
-0.052,-0.615,-0.880,5.676,8.301,-1.648
-0.035,-0.612,-0.893,3.479,3.296,-3.662
-0.037,-0.626,-0.861,-1.587,0.854,-4.211
-0.044,-0.627,-0.846,-3.662,-0.732,-4.211
-0.036,-0.616,-0.813,-4.089,-1.343,-3.662
-0.041,-0.619,-0.812,-3.113,-1.221,0.000
-0.053,-0.618,-0.818,2.686,1.709,3.052
-0.057,-0.622,-0.828,6.042,3.784,7.324
-0.053,-0.646,-0.860,9.155,5.615,7.141
-0.039,-0.661,-0.868,5.005,3.723,2.808
-0.042,-0.673,-0.856,1.282,1.587,1.404
-0.060,-0.660,-0.828,-2.808,-1.282,1.892
-0.079,-0.593,-0.787,-5.371,-2.930,2.747
-0.078,-0.573,-0.782,-4.028,-2.258,3.784
-0.072,-0.561,-0.800,1.953,0.244,6.226
-0.063,-0.571,-0.814,4.822,1.770,6.836
-0.056,-0.593,-0.853,5.859,2.563,6.409
-0.050,-0.597,-0.867,4.517,2.625,5.371
-0.041,-0.598,-0.877,2.502,2.075,3.113
-0.041,-0.607,-0.884,-1.221,-0.488,2.625
-0.063,-0.640,-0.872,-4.272,-3.357,3.235
-0.066,-0.655,-0.861,-5.310,-4.272,4.028
-0.090,-0.662,-0.850,-8.606,-5.676,8.179
-0.074,-0.642,-0.830,-8.911,-5.005,11.047
-0.077,-0.581,-0.835,-4.700,-3.601,17.761
-0.065,-0.566,-0.832,0.793,-4.089,22.583
-0.074,-0.557,-0.836,1.160,-4.639,23.804
-0.053,-0.548,-0.872,-0.549,-4.883,23.865
-0.044,-0.550,-0.879,-1.892,-6.348,23.315
-0.038,-0.566,-0.874,-5.005,-11.047,22.827
-0.034,-0.558,-0.865,-6.653,-12.451,22.949
-0.005,-0.539,-0.835,-8.667,-13.733,22.949
-0.003,-0.526,-0.819,-8.423,-16.785,20.935
-0.007,-0.501,-0.769,-6.836,-16.479,19.226
-0.003,-0.494,-0.748,-3.296,-12.390,15.991
0.001,-0.504,-0.754,-1.831,-9.155,13.489
0.009,-0.524,-0.784,-0.732,-4.700,8.362
0.025,-0.546,-0.805,-0.244,-3.357,5.676
0.061,-0.589,-0.824,-1.099,-2.380,2.136
0.064,-0.592,-0.829,-2.075,-3.113,2.808
0.075,-0.588,-0.828,-2.014,-5.737,2.502
0.080,-0.598,-0.803,0.061,-8.423,0.916
0.070,-0.607,-0.783,0.244,-9.338,0.549
0.055,-0.606,-0.767,-0.977,-9.705,1.709
0.038,-0.594,-0.754,-0.366,-8.545,1.709
0.036,-0.610,-0.779,2.319,-5.005,0.427
0.034,-0.631,-0.798,2.380,-3.723,-0.366
0.034,-0.684,-0.826,1.099,-2.869,-1.831
0.039,-0.694,-0.832,-0.671,-3.174,-1.648
0.041,-0.688,-0.817,-3.723,-4.700,2.258
0.028,-0.682,-0.800,-4.150,-5.981,4.761
0.016,-0.656,-0.776,-5.798,-7.751,8.423
0.016,-0.649,-0.767,-5.859,-8.118,12.085
0.016,-0.631,-0.750,-5.127,-7.935,14.282
0.012,-0.585,-0.752,-4.456,-6.287,19.165
0.015,-0.560,-0.773,-3.296,-5.066,20.142
0.030,-0.545,-0.779,1.038,-4.211,17.761
0.034,-0.562,-0.784,1.404,-3.967,15.808
0.045,-0.577,-0.802,-2.136,-2.930,12.451
0.047,-0.599,-0.809,-4.822,-3.052,10.559
0.078,-0.645,-0.842,-9.827,-4.883,9.216
0.096,-0.657,-0.901,-14.893,-13.123,13.916
0.089,-0.641,-0.858,-17.334,-17.883,16.724
0.055,-0.643,-0.800,-22.339,-25.635,21.790
0.015,-0.627,-0.781,-22.156,-25.818,22.583
0.009,-0.657,-0.743,-17.334,-20.996,25.879
0.001,-0.681,-0.732,-15.381,-18.311,28.931
0.013,-0.747,-0.763,-13.245,-13.184,36.438
0.043,-0.773,-0.801,-14.099,-11.963,41.504
0.080,-0.731,-0.839,-18.494,-16.846,53.589
0.085,-0.685,-0.828,-18.982,-22.888,62.378
0.077,-0.608,-0.778,-17.883,-25.513,62.805
0.077,-0.598,-0.722,-14.404,-25.757,57.617
0.070,-0.602,-0.707,-14.221,-23.804,53.406
0.078,-0.609,-0.710,-17.029,-17.944,45.959
0.100,-0.611,-0.736,-17.273,-16.357,42.114
0.158,-0.659,-0.766,-11.047,-15.991,36.804
0.177,-0.684,-0.766,-9.155,-17.822,37.292
0.189,-0.694,-0.763,-9.216,-22.949,42.053
0.189,-0.687,-0.762,-10.132,-24.292,43.213
0.213,-0.690,-0.754,-11.902,-26.978,40.955
0.226,-0.688,-0.738,-13.489,-27.893,36.926
0.235,-0.692,-0.685,-18.616,-27.100,35.889
0.231,-0.670,-0.659,-20.752,-23.560,35.339
-2.068,-2.290,-0.623,55.237,118.713,-237.488
-1.974,-3.049,-1.078,40.466,156.372,-246.155
-1.098,-2.312,-1.499,26.001,186.829,-203.491
-0.874,-1.603,-1.312,52.917,112.671,-97.107
-1.046,-0.834,-0.873,141.174,90.515,-52.734
-1.188,-0.293,-0.946,186.951,98.755,-25.208
-1.283,-0.260,-1.148,181.824,112.915,-31.677
-1.123,-0.615,-1.697,170.105,140.015,-59.082
-0.899,-0.992,-1.966,160.034,141.907,-71.899
-0.444,-1.606,-2.274,105.286,96.924,-72.754
-0.240,-1.706,-2.270,22.583,13.672,-44.617
-0.117,-1.243,-1.818,-12.695,-29.297,-23.743
-0.467,-0.643,-1.150,-46.021,-82.336,0.427
-0.534,-0.450,-0.808,-45.776,-92.834,-1.221
-0.562,-0.321,-0.339,-18.982,-71.167,3.113
-0.500,-0.451,-0.402,27.405,-14.648,16.418
-0.441,-0.528,-0.568,44.800,8.179,23.193
-0.261,-0.581,-0.809,54.138,25.208,30.762
-0.207,-0.543,-0.849,42.908,22.827,30.396
-0.175,-0.353,-0.818,11.230,12.207,23.987
-0.182,-0.270,-0.776,-4.883,2.991,12.024
-0.182,-0.221,-0.758,-5.127,2.075,6.714
-0.143,-0.271,-0.791,0.000,4.761,0.488
-0.132,-0.301,-0.812,2.625,5.432,-0.732
-0.132,-0.373,-0.842,7.446,9.644,-3.052
-0.134,-0.412,-0.865,8.728,11.841,-4.272
-0.112,-0.486,-0.921,8.667,15.381,-7.385
-0.105,-0.515,-0.955,7.874,0.427,-9.460
-0.077,-0.544,-1.004,4.456,13.306,-10.071
-0.079,-0.538,-0.997,1.038,8.789,-10.010
-0.140,-0.532,-0.930,-2.808,-0.793,-6.775
-0.172,-0.547,-0.890,0.854,-0.671,-3.174
-0.163,-0.558,-0.893,2.747,1.465,-1.770
-0.150,-0.547,-0.912,3.235,3.052,-0.061
-0.146,-0.543,-0.909,1.831,2.747,-15.625
-0.155,-0.514,-0.854,-3.479,-0.610,-0.549
-0.173,-0.464,-0.812,-7.019,-0.977,0.000
-0.182,-0.451,-0.812,-7.263,-0.122,-0.183
-0.189,-0.454,-0.811,-4.456,2.502,0.244
-0.184,-0.458,-0.828,-2.014,4.700,1.221
-0.163,-0.484,-0.871,3.906,9.216,2.625
-0.156,-0.500,-0.926,4.639,10.010,4.700
-0.146,-0.500,-0.937,2.930,8.850,5.737
-0.148,-0.485,-0.944,-1.404,5.188,8.362
-0.152,-0.439,-0.968,-2.258,3.601,8.362
-0.154,-0.432,-0.971,-2.563,0.061,8.362
-0.154,-0.424,-0.978,-2.808,-1.587,8.667
-0.161,-0.419,-0.976,-3.296,-4.028,7.935
-0.163,-0.430,-0.972,-3.723,-5.005,5.920
-0.165,-0.457,-0.953,-3.723,-5.859,3.479
-0.173,-0.476,-0.947,-3.662,-6.104,3.845
-0.179,-0.514,-0.954,-3.479,-6.775,6.104
-0.183,-0.526,-0.958,-3.967,-7.629,7.568
-0.176,-0.544,-0.955,-4.517,-10.803,11.902
-0.171,-0.540,-0.951,-4.761,-12.939,15.198
-0.165,-0.511,-0.923,-4.089,-17.517,23.499
-0.177,-0.458,-0.890,-1.953,-21.179,29.480
-0.162,-0.445,-0.877,-0.305,-21.729,30.396
-0.154,-0.431,-0.862,1.953,-22.339,32.410
-0.157,-0.434,-0.865,2.563,-23.193,33.936
-0.161,-0.423,-0.861,3.052,-22.888,33.813
-0.159,-0.418,-0.854,2.319,-22.461,32.104
-0.166,-0.422,-0.844,-0.061,-20.630,29.236
-0.161,-0.436,-0.847,-0.488,-18.921,26.367
-0.119,-0.466,-0.853,-2.319,-16.418,25.940
-0.069,-0.469,-0.871,-4.456,-16.113,24.963
-0.077,-0.479,-0.880,-5.432,-16.846,23.621
-0.066,-0.503,-0.881,-8.179,-18.555,21.484
-0.066,-0.515,-0.880,-9.644,-19.165,21.118
-0.064,-0.543,-0.870,-12.573,-19.775,19.531
-0.063,-0.559,-0.865,-13.672,-19.287,20.020
-0.066,-0.610,-0.884,-13.062,-16.541,21.851
-0.032,-0.624,-0.926,-11.292,-13.855,26.550
-0.003,-0.611,-0.934,-9.338,-13.672,28.931
0.014,-0.571,-0.914,-8.667,-17.944,33.997
0.009,-0.547,-0.904,-8.728,-20.630,35.034
0.010,-0.525,-0.873,-9.399,-23.560,32.654
0.011,-0.539,-0.874,-10.803,-22.278,31.372
0.020,-0.527,-0.880,-11.475,-21.362,31.250
0.022,-0.527,-0.858,-12.634,-22.156,29.663
0.007,-0.541,-0.830,-13.245,-22.583,29.663
0.023,-0.547,-0.824,-14.221,-19.531,31.311
0.050,-0.527,-0.846,-14.160,-16.907,32.532
0.070,-0.495,-0.883,-10.986,-16.724,35.339
0.070,-0.504,-0.895,-8.728,-18.372,36.011
0.081,-0.530,-0.894,-9.827,-23.193,34.485
0.088,-0.502,-0.842,-19.531,-28.198,31.372
0.086,-0.474,-0.833,-22.522,-28.503,30.701
0.095,-0.491,-0.835,-19.104,-26.550,27.161
0.099,-0.534,-0.856,-17.334,-25.879,26.794
0.115,-0.560,-0.919,-17.151,-25.696,28.259
0.115,-0.562,-0.927,-18.982,-28.809,27.405
0.128,-0.558,-0.878,-25.513,-38.330,22.522
0.144,-0.549,-0.785,-29.541,-43.579,19.714
0.153,-0.564,-0.757,-28.809,-42.908,20.569
0.177,-0.571,-0.765,-22.705,-38.330,22.461
0.193,-0.584,-0.785,-18.372,-35.217,21.851
0.219,-0.669,-0.798,-13.611,-32.166,19.714
0.222,-0.697,-0.804,-13.916,-31.799,21.606
0.213,-0.689,-0.816,-17.761,-31.555,23.560
0.222,-0.661,-0.810,-16.724,-32.349,27.527
0.241,-0.639,-0.807,-16.479,-32.898,28.320
0.292,-0.589,-0.769,-17.822,-35.583,27.222
0.306,-0.573,-0.747,-19.714,-37.354,26.062
0.308,-0.577,-0.715,-22.278,-38.086,24.048
0.312,-0.588,-0.717,-21.729,-35.950,23.437
0.333,-0.596,-0.733,-15.686,-29.907,24.292
0.325,-0.617,-0.767,-11.108,-28.564,26.062
0.314,-0.683,-0.804,-8.118,-30.396,26.367
0.318,-0.705,-0.821,-27.649,-37.354,23.254
0.364,-0.657,-0.788,-22.156,-41.077,20.081
0.409,-0.564,-0.674,-28.076,-46.143,16.174
0.404,-0.529,-0.621,-27.466,-46.265,16.785
0.399,-0.517,-0.583,-18.127,-39.063,18.066
0.412,-0.564,-0.584,-11.902,-33.081,18.555
0.441,-0.618,-0.659,-6.470,-23.315,20.508
0.448,-0.642,-0.694,-7.751,-22.156,20.752
0.448,-0.674,-0.723,-13.489,-26.001,18.616
0.447,-0.675,-0.710,-17.273,-29.053,18.005
-1.693,-1.361,-0.940,99.121,180.603,-171.692
-1.604,-1.413,-1.115,85.205,189.758,-159.241
-1.291,-1.212,-1.340,91.370,195.007,-121.521
-1.107,-1.147,-1.538,109.375,196.716,-109.497
-0.572,-1.315,-1.913,126.099,189.941,-113.586
-0.265,-1.440,-2.008,110.474,171.570,-120.056
0.109,-1.618,-1.767,32.532,88.989,-124.390
0.097,-1.673,-1.470,-15.137,32.898,-117.920
-0.031,-1.608,-1.204,-76.660,-34.302,-81.421
-0.143,-1.197,-0.871,-76.294,-34.058,-57.556
0.071,-0.798,-0.852,-18.311,1.404,-9.705
0.195,-0.680,-0.956,18.616,18.799,11.414
0.270,-0.598,-1.054,52.124,23.987,46.692
0.302,-0.411,-1.169,47.424,17.822,56.519
0.298,-0.304,-1.210,36.133,10.681,58.655
0.344,-0.141,-1.254,10.437,-5.066,42.908
0.325,-0.086,-1.177,3.235,-9.033,31.494
0.334,-0.051,-1.090,1.221,-8.301,21.912
0.348,-0.016,-1.035,-2.686,-19.348,18.616
0.284,-0.007,-0.993,2.197,-42.725,30.701
0.232,0.005,-0.953,8.972,-30.457,34.180
0.193,-0.036,-0.891,15.442,0.427,20.447
0.211,-0.057,-0.851,11.169,4.883,9.888
0.209,-0.063,-0.825,3.784,3.479,1.526
0.190,-0.106,-0.806,-7.019,-2.686,-8.606
0.187,-0.135,-0.801,-9.155,-3.296,-12.878
0.194,-0.226,-0.861,-7.202,1.648,-12.878
0.210,-0.229,-0.917,-3.906,6.714,-8.911
0.284,-0.196,-0.981,2.380,12.939,-2.258
0.296,-0.188,-0.985,2.502,11.169,0.000
0.272,-0.173,-0.958,-2.319,4.883,0.732
0.258,-0.159,-0.940,-4.272,2.197,-1.343
0.264,-0.170,-0.947,-2.380,0.977,-3.113
0.275,-0.204,-0.963,0.488,4.211,-2.563
0.283,-0.220,-0.963,2.136,3.662,-1.099
0.291,-0.250,-0.958,-0.916,0.854,-0.427
0.282,-0.239,-0.935,-3.662,-0.854,0.671
0.268,-0.199,-0.903,-7.324,-1.587,1.892
0.273,-0.166,-0.917,-6.042,0.122,1.038
0.287,-0.168,-0.922,-3.479,2.380,-2.136
0.284,-0.222,-0.939,1.892,3.113,-2.502
0.279,-0.233,-0.954,3.235,4.333,-1.648
0.275,-0.242,-0.975,3.784,5.615,-0.549
0.271,-0.263,-0.979,3.845,5.371,-0.977
0.266,-0.274,-0.984,3.235,4.639,-0.854
0.268,-0.270,-0.987,1.221,3.845,2.380
0.272,-0.243,-0.986,0.732,2.563,3.784
0.252,-0.241,-0.979,0.488,0.366,4.150
0.245,-0.246,-0.951,0.549,-1.587,3.296
0.254,-0.213,-0.951,-0.183,-1.465,3.723
0.259,-0.144,-0.958,1.160,-0.732,5.188
0.255,-0.145,-0.952,4.822,-1.648,4.272
0.245,-0.173,-0.942,5.188,-1.160,4.333
0.250,-0.174,-0.964,3.235,1.465,3.540
0.261,-0.182,-0.971,2.869,1.831,1.831
0.279,-0.194,-0.966,1.343,-0.183,0.366
0.274,-0.193,-0.951,-0.061,-1.587,0.671
0.284,-0.154,-0.937,-1.038,-2.197,2.258
0.283,-0.140,-0.939,0.671,-2.075,2.686
0.275,-0.148,-0.946,4.883,-1.099,2.441
0.274,-0.170,-0.959,6.592,-0.488,1.465
0.278,-0.231,-0.970,5.676,-1.099,-1.648
0.280,-0.249,-0.970,4.150,-1.343,-1.892
0.288,-0.227,-0.963,2.441,-1.526,0.610
0.295,-0.207,-0.956,1.160,-2.136,1.465
0.290,-0.183,-0.945,-1.404,-7.263,2.380
0.282,-0.174,-0.927,-2.258,-7.935,2.197
0.261,-0.139,-0.897,-1.282,-5.493,1.526
0.257,-0.145,-0.889,2.014,-3.906,0.977
0.264,-0.183,-0.900,7.690,-0.122,0.916
0.273,-0.193,-0.919,7.935,1.709,-0.610
0.284,-0.195,-0.937,3.845,1.648,-1.953
0.292,-0.193,-0.935,2.380,0.183,-3.357
0.289,-0.193,-0.916,1.160,-0.671,-3.174
0.274,-0.218,-0.908,1.038,-1.404,-2.136
0.277,-0.215,-0.903,0.854,-1.343,-1.404
0.277,-0.199,-0.909,1.038,-0.793,-0.549
0.281,-0.207,-0.912,2.075,-0.061,-0.671
0.284,-0.226,-0.930,2.014,-0.122,-0.427
0.290,-0.222,-0.940,0.916,-0.061,-0.061
0.293,-0.212,-0.949,-0.854,-0.916,0.305
0.294,-0.215,-0.958,-0.610,-1.343,1.038
0.293,-0.205,-0.954,-1.160,-2.014,1.160
0.276,-0.212,-0.934,-2.258,-3.235,0.488
0.275,-0.216,-0.923,-2.747,-3.357,0.427
0.272,-0.213,-0.922,-3.174,-2.502,0.854
0.277,-0.197,-0.924,-3.113,-2.441,1.099
0.277,-0.160,-0.926,-1.892,-2.014,2.380
0.276,-0.158,-0.931,1.282,-0.793,1.953
0.288,-0.173,-0.949,1.221,-0.183,0.916
0.294,-0.184,-0.966,0.305,-0.061,-0.366
0.297,-0.198,-0.977,-2.258,-1.526,-2.930
0.298,-0.211,-0.976,-1.465,-2.686,-2.197
0.288,-0.223,-0.975,-0.549,-3.296,-1.343
0.272,-0.246,-0.963,-0.549,-4.150,-0.122
0.262,-0.250,-0.956,-1.465,-4.272,0.305
0.259,-0.251,-0.952,-2.380,-4.456,1.465
0.266,-0.253,-0.954,-2.319,-4.700,3.052
0.272,-0.246,-0.957,-3.845,-6.042,3.784
0.274,-0.234,-0.946,-5.371,-8.606,5.188
0.277,-0.231,-0.946,-5.432,-9.521,6.226
0.287,-0.247,-0.953,-5.798,-12.329,7.690
0.289,-0.247,-0.953,-6.958,-14.404,8.362
0.289,-0.237,-0.930,-10.254,-19.043,9.277
0.286,-0.237,-0.918,-12.268,-20.874,9.338
0.282,-0.230,-0.919,-15.198,-21.790,8.240
0.280,-0.240,-0.914,-15.320,-21.790,7.019
0.283,-0.256,-0.906,-16.968,-21.179,6.287
0.295,-0.260,-0.912,-20.691,-21.057,6.348
0.322,-0.255,-0.934,-21.973,-21.729,5.859
0.329,-0.261,-0.939,-22.766,-25.024,6.042
0.332,-0.257,-0.930,-22.583,-26.672,7.690
0.340,-0.209,-0.902,-20.813,-28.503,10.620
0.341,-0.193,-0.877,-18.372,-28.015,11.475
0.340,-0.193,-0.858,-10.925,-24.109,13.611
0.345,-0.200,-0.865,-8.789,-21.790,13.733
0.342,-0.214,-0.881,-8.179,-18.433,11.658
0.336,-0.207,-0.891,-9.094,-17.090,9.644
0.369,-0.193,-0.872,-7.385,-12.268,5.127
1.709,0.150,-0.634,76.843,58.472,-36.987
1.618,0.202,-0.613,67.993,34.424,-20.264
1.325,0.509,-0.509,57.190,-6.897,7.507
1.187,0.779,-0.487,59.387,-16.968,15.625
0.922,1.183,-0.470,83.069,-25.574,-2.380
0.752,1.240,-0.410,95.459,-28.564,-28.381
0.315,1.141,-0.208,103.088,-20.386,-96.497
0.078,0.974,-0.151,104.614,-4.089,-132.751
-0.347,0.528,-0.201,104.370,40.649,-194.885
-0.546,0.227,-0.364,103.699,65.125,-212.097
-0.686,-0.476,-0.910,86.243,105.652,-205.078
-0.728,-0.656,-1.185,31.006,76.843,-179.260
-1.061,-0.998,-1.122,2.441,28.564,-170.898
-1.593,-0.951,-0.844,-30.640,-46.631,-151.367
-1.766,-0.891,-0.795,-11.047,-42.053,-153.809
-1.525,-1.188,-1.076,105.835,32.837,-171.082
-1.021,-1.400,-1.453,174.133,89.294,-159.302
-0.033,-1.742,-1.801,218.140,127.747,-119.934
0.153,-1.845,-1.675,172.180,87.646,-111.633
-0.102,-1.919,-0.980,17.517,-20.935,-118.103
-0.182,-1.761,-0.715,-34.790,-46.326,-114.075
-0.018,-1.291,-0.427,-47.302,-26.184,-73.853
0.264,-1.047,-0.690,9.399,22.095,-5.859
0.408,-0.885,-0.861,28.748,31.372,23.560
0.518,-0.472,-0.956,28.625,8.118,46.326
0.491,-0.396,-0.932,23.987,-7.202,42.236
0.444,-0.328,-0.834,15.442,-16.357,32.654
0.506,-0.329,-0.832,9.766,-11.780,29.236
0.531,-0.172,-0.835,-4.639,1.343,5.798
0.570,-0.170,-0.922,-4.578,7.446,-2.747
0.547,-0.260,-0.963,1.404,4.700,-14.832
0.507,-0.344,-0.987,6.531,5.920,-14.465
0.490,-0.470,-1.008,14.343,22.034,-9.460
0.472,-0.522,-0.963,11.841,19.775,-9.827
0.407,-0.538,-0.884,-1.221,6.714,-11.963
0.418,-0.464,-0.836,-8.118,3.113,-11.841
0.361,-0.300,-0.806,-13.916,-0.244,-8.179
0.364,-0.269,-0.818,-1.831,3.296,-3.723
0.395,-0.316,-0.818,2.319,4.333,-2.014
0.376,-0.372,-0.825,1.160,4.272,-3.052
0.382,-0.388,-0.818,-1.038,4.272,-4.395
0.396,-0.378,-0.842,-1.648,4.211,-5.188
0.415,-0.371,-0.844,-0.183,3.479,-4.272
0.414,-0.331,-0.832,2.075,0.305,-1.404
0.387,-0.314,-0.818,3.418,0.183,-0.488
0.398,-0.312,-0.802,7.812,2.869,-2.441
0.411,-0.359,-0.823,9.399,2.869,-4.211
0.383,-0.361,-0.820,9.155,6.287,-4.456
0.367,-0.431,-0.855,8.667,12.573,-4.395
0.371,-0.468,-0.867,6.653,13.611,-4.028
0.389,-0.500,-0.856,-0.366,10.376,-1.221
0.395,-0.471,-0.843,-2.991,8.057,4.578
0.397,-0.403,-0.841,0.793,7.324,7.385
0.390,-0.398,-0.843,8.057,5.981,14.404
0.393,-0.323,-0.857,9.766,5.798,17.151
0.392,-0.289,-0.844,10.132,5.371,17.029
0.376,-0.260,-0.825,9.583,5.310,12.451
0.381,-0.253,-0.835,9.094,6.714,7.690
0.403,-0.267,-0.888,6.897,8.423,4.395
0.399,-0.307,-0.911,4.944,7.080,0.671
0.413,-0.411,-0.909,-0.305,2.441,-4.272
0.407,-0.433,-0.892,-3.723,-0.488,-4.089
0.390,-0.381,-0.870,-5.676,-2.808,0.122
0.397,-0.354,-0.816,-1.038,-3.113,4.089
0.377,-0.327,-0.813,1.221,-2.258,7.019
0.388,-0.279,-0.836,6.165,0.549,9.216
0.389,-0.267,-0.831,6.775,-0.183,8.118
0.382,-0.278,-0.842,7.629,0.916,5.005
0.390,-0.301,-0.853,7.874,2.075,2.625
0.413,-0.337,-0.881,6.348,1.526,0.244
0.414,-0.354,-0.886,4.700,-1.831,-1.282
0.426,-0.411,-0.872,1.587,-3.296,-1.404
0.434,-0.420,-0.864,1.038,-3.540,1.709
0.413,-0.424,-0.833,2.197,-4.089,4.456
0.386,-0.427,-0.789,2.930,-7.019,7.568
0.383,-0.423,-0.786,2.930,-6.653,9.888
0.392,-0.395,-0.812,3.784,-1.221,11.658
0.403,-0.382,-0.810,3.967,1.282,11.780
0.423,-0.339,-0.808,1.892,1.160,11.414
0.421,-0.316,-0.817,0.916,0.549,11.230
0.422,-0.298,-0.832,3.052,-0.061,11.047
0.423,-0.303,-0.836,4.517,-0.671,10.010
0.424,-0.325,-0.841,4.028,-0.366,8.057
0.432,-0.318,-0.853,2.747,0.488,7.263
0.435,-0.321,-0.865,-1.221,0.000,3.906
0.430,-0.328,-0.863,-3.418,-2.502,0.610
0.416,-0.328,-0.847,-6.409,-3.235,-0.671
0.410,-0.313,-0.820,-6.836,-3.601,-0.854
0.404,-0.318,-0.814,-5.676,-2.991,-0.671
0.409,-0.323,-0.815,-2.991,-0.977,0.732
0.405,-0.329,-0.823,-1.404,-0.183,1.892
0.412,-0.347,-0.850,1.526,0.549,3.845
0.421,-0.350,-0.863,1.709,0.183,4.578
0.417,-0.365,-0.845,0.610,-2.502,4.883
0.403,-0.372,-0.830,-0.366,-3.357,5.432
0.393,-0.382,-0.831,-0.854,-2.502,6.165
0.391,-0.391,-0.830,-1.038,-1.526,5.981
0.405,-0.388,-0.832,-1.038,-0.671,6.714
0.428,-0.356,-0.859,-0.793,1.160,7.629
0.446,-0.356,-0.868,-0.549,0.793,7.629
0.443,-0.365,-0.865,-2.441,-1.709,7.202
0.440,-0.361,-0.862,-3.113,-2.502,8.545
0.435,-0.334,-0.846,-1.892,-4.333,10.742
0.431,-0.336,-0.836,-0.061,-4.639,12.390
0.415,-0.346,-0.832,2.502,-4.333,14.648
0.415,-0.362,-0.839,2.319,-3.784,14.465
0.402,-0.384,-0.843,-2.380,-3.540,11.841
0.410,-0.411,-0.845,-7.019,-3.662,10.437
0.430,-0.414,-0.849,-9.705,-3.906,10.620
0.437,-0.396,-0.841,-15.564,-6.409,11.414
0.432,-0.382,-0.836,-16.418,-7.812,12.329
0.429,-0.386,-0.813,-12.878,-9.827,16.235
0.426,-0.389,-0.803,-11.108,-10.498,19.043
0.422,-0.372,-0.792,-9.277,-11.108,24.048
0.412,-0.364,-0.788,-9.827,-11.047,25.269
0.420,-0.348,-0.795,-10.376,-9.705,24.536
0.448,-0.366,-0.803,-13.428,-8.728,22.461
0.456,-0.374,-0.806,-16.846,-9.460,20.752
0.445,-0.364,-0.804,-25.452,-11.230,19.958
1.521,0.790,0.305,-36.682,63.599,29.663
1.536,0.831,0.287,-39.124,61.707,26.978
1.400,1.008,0.337,-64.209,44.312,23.560
1.246,1.093,0.412,-74.768,32.654,18.677
0.915,1.226,0.516,-72.632,26.733,-6.226
0.789,1.249,0.492,-56.824,40.833,-27.466
0.505,1.153,0.274,-11.475,78.613,-78.857
0.365,1.049,0.133,11.658,94.421,-103.760
0.106,0.491,-0.208,59.204,121.704,-146.790
0.001,0.058,-0.431,70.129,127.686,-158.875
-0.040,-0.760,-0.828,41.626,116.821,-155.518
-0.107,-0.939,-0.949,2.991,88.745,-141.968
-0.502,-0.749,-0.860,-46.753,7.751,-116.760
-0.705,-0.553,-0.737,-0.366,-10.681,-106.384
-0.867,-0.505,-0.595,52.490,16.968,-102.112
-0.572,-1.032,-0.907,164.734,109.924,-101.440
-0.481,-1.393,-1.178,179.932,136.536,-111.450
-0.439,-1.694,-1.365,156.860,140.564,-125.610
-0.298,-2.047,-1.626,57.007,121.094,-150.208
-0.158,-1.878,-1.562,-4.456,87.585,-139.282
0.152,-1.406,-1.379,2.808,72.571,-117.981
0.249,-1.287,-1.274,50.659,55.054,-64.819
0.322,-1.307,-1.235,65.063,48.279,-42.725
0.322,-1.333,-1.117,47.180,27.344,-17.761
0.223,-1.230,-1.037,27.588,19.714,-11.536
0.221,-0.912,-0.905,8.240,22.949,5.981
0.363,-0.747,-0.960,13.062,27.283,20.447
0.412,-0.463,-1.009,29.175,23.437,33.386
0.450,-0.377,-0.987,37.903,29.602,38.757
0.434,-0.284,-1.005,38.879,23.926,34.241
0.419,-0.242,-0.969,30.212,13.062,27.710
0.362,-0.129,-0.827,4.761,-9.216,11.963
0.341,-0.080,-0.739,-4.395,-15.991,2.869
0.295,-0.122,-0.607,-9.094,-15.381,-17.944
0.297,-0.163,-0.565,-6.165,5.737,-32.715
0.353,-0.288,-0.667,-0.427,20.203,-33.203
0.471,-0.417,-0.948,21.667,37.476,-23.804
0.531,-0.495,-1.010,27.405,35.156,-20.081
0.515,-0.537,-0.912,11.475,10.925,-14.404
0.451,-0.501,-0.814,-0.549,-1.465,-11.597
0.366,-0.479,-0.747,-4.150,-0.916,-9.583
0.382,-0.499,-0.792,3.723,10.315,-8.606
0.414,-0.553,-0.838,5.005,11.230,-5.554
0.410,-0.535,-0.839,3.235,10.559,1.404
0.449,-0.507,-0.822,2.197,10.315,2.869
0.477,-0.463,-0.832,1.221,11.108,5.127
0.500,-0.439,-0.867,2.319,11.414,6.165
0.520,-0.402,-0.917,2.136,5.798,6.165
0.510,-0.399,-0.913,1.587,1.160,4.883
0.462,-0.408,-0.843,-1.099,-6.592,1.465
0.439,-0.410,-0.797,-2.686,-7.996,0.427
0.414,-0.404,-0.735,-3.418,-5.188,-0.610
0.405,-0.415,-0.746,-1.526,-1.770,0.244
0.447,-0.448,-0.840,5.493,7.019,3.662
0.478,-0.460,-0.897,7.629,6.042,4.578
0.484,-0.451,-0.892,4.944,1.343,5.615
0.469,-0.428,-0.838,1.282,-4.395,7.507
0.440,-0.379,-0.806,1.343,-5.310,7.874
0.423,-0.367,-0.776,2.441,-4.517,8.240
0.417,-0.348,-0.770,3.540,-2.319,8.545
0.438,-0.340,-0.798,4.395,0.610,6.104
0.436,-0.334,-0.809,3.479,0.122,4.028
0.469,-0.359,-0.827,5.249,-0.671,-0.671
0.468,-0.386,-0.810,4.456,-2.808,-1.770
0.446,-0.391,-0.785,1.343,-4.211,-0.122
0.451,-0.388,-0.790,1.465,-3.235,1.526
0.461,-0.386,-0.797,2.319,-2.563,1.465
0.462,-0.392,-0.794,1.770,-2.380,1.892
0.453,-0.376,-0.805,2.075,-2.075,2.319
0.464,-0.356,-0.798,2.197,-1.953,1.526
0.456,-0.344,-0.791,1.709,-2.686,1.404
0.453,-0.344,-0.788,2.258,-2.991,-0.671
0.465,-0.378,-0.787,1.709,-3.235,-1.587
0.481,-0.385,-0.792,-0.793,-4.028,-1.221
0.485,-0.375,-0.788,-1.465,-4.456,-1.038
0.479,-0.369,-0.781,-0.183,-4.761,0.122
0.475,-0.379,-0.783,0.854,-4.517,0.427
0.477,-0.394,-0.790,0.244,-4.089,-0.916
0.470,-0.390,-0.783,-3.357,-5.432,-2.258
0.470,-0.380,-0.783,-3.967,-5.615,-2.502
0.482,-0.397,-0.774,-3.296,-6.958,-3.906
0.470,-0.406,-0.766,-3.906,-7.874,-3.967
0.451,-0.381,-0.728,-4.639,-7.812,-3.296
0.448,-0.374,-0.711,-1.160,-4.517,-1.343
0.448,-0.401,-0.738,0.793,-2.441,-0.793
0.462,-0.400,-0.767,0.061,0.061,-1.099
0.472,-0.393,-0.789,-0.854,1.099,-1.221
0.481,-0.403,-0.822,-1.526,-1.221,-1.892
0.484,-0.408,-0.818,-2.441,-3.296,-2.502
0.479,-0.414,-0.794,-4.089,-5.920,-1.831
0.476,-0.407,-0.789,-4.761,-6.226,-0.671
0.459,-0.411,-0.777,-5.737,-6.531,-1.099
0.460,-0.396,-0.767,-5.188,-5.005,-0.488
0.462,-0.386,-0.766,-4.150,-4.089,0.610
0.462,-0.366,-0.773,-1.282,-1.648,2.747
0.477,-0.363,-0.784,2.625,0.305,2.563
0.495,-0.365,-0.807,2.502,0.305,2.869
0.497,-0.362,-0.823,1.526,-0.122,1.282
0.496,-0.362,-0.828,-0.854,-2.991,-0.427
0.487,-0.367,-0.797,-2.869,-5.554,-2.258
0.477,-0.371,-0.784,-3.357,-5.981,-2.319
0.478,-0.397,-0.770,-0.977,-5.127,-2.747
0.482,-0.409,-0.769,0.305,-4.395,-2.136
0.493,-0.429,-0.774,0.427,-3.662,-0.732
0.493,-0.435,-0.779,-0.183,-3.723,-0.244
0.493,-0.450,-0.782,-0.977,-4.395,0.061
0.486,-0.458,-0.770,-1.587,-5.493,0.366
0.468,-0.449,-0.743,-1.953,-5.737,3.235
0.466,-0.443,-0.745,0.793,-3.479,6.165
0.477,-0.426,-0.765,2.075,-2.380,7.629
0.484,-0.416,-0.778,2.075,-2.380,8.179
0.486,-0.397,-0.790,0.732,-3.113,7.751
0.488,-0.374,-0.781,-2.319,-4.883,5.127
0.483,-0.378,-0.767,-3.418,-6.042,3.906
0.476,-0.395,-0.750,-4.456,-7.385,1.709
0.472,-0.409,-0.752,-5.676,-7.141,-14.954
0.477,-0.440,-0.759,-7.141,-7.629,-0.671
0.477,-0.450,-0.737,-6.958,-7.629,2.136
0.468,-0.453,-0.739,-5.554,-6.958,4.700
-0.911,-1.078,-0.841,127.197,99.670,-88.501
-1.043,-1.197,-0.777,104.309,100.220,-107.605
-1.347,-1.282,-0.838,73.547,133.606,-126.587
-1.384,-1.366,-1.045,86.060,172.241,-122.009
-1.036,-1.384,-1.808,156.311,251.953,-90.454
-0.717,-1.438,-2.176,190.979,271.729,-75.317
-0.393,-1.534,-2.453,177.124,233.032,-65.430
0.119,-1.631,-2.526,120.850,168.091,-70.923
0.148,-1.558,-2.286,50.964,89.355,-85.999
-0.056,-1.388,-1.628,-60.425,-39.001,-83.008
-0.189,-1.249,-1.319,-91.431,-75.256,-70.068
-0.354,-0.882,-0.779,-104.553,-105.164,-29.785
-0.417,-0.699,-0.580,-76.904,-102.539,6.714
-0.455,-0.428,-0.433,-47.424,-78.491,25.024
-0.326,-0.383,-0.545,24.658,-3.174,48.706
-0.269,-0.411,-0.716,51.025,24.841,54.077
-0.191,-0.427,-0.885,63.843,50.049,50.903
-0.015,-0.367,-1.087,53.223,46.936,44.250
0.033,-0.312,-1.113,35.461,18.921,23.254
0.017,-0.162,-0.989,-5.005,4.333,11.902
-0.014,-0.139,-0.899,-16.541,-4.822,1.587
-0.045,-0.258,-0.774,-15.259,-6.042,-12.329
-0.044,-0.369,-0.765,-9.644,-2.808,-15.442
-0.006,-0.542,-0.838,-2.014,7.080,-13.855
0.047,-0.573,-0.885,1.282,11.597,-10.864
0.114,-0.594,-0.908,7.568,10.376,-3.784
0.103,-0.591,-0.890,8.057,6.042,-0.122
0.093,-0.521,-0.871,7.019,5.310,5.310
0.089,-0.504,-0.867,7.568,6.592,4.883
0.081,-0.515,-0.880,8.484,7.385,2.930
0.110,-0.579,-0.940,9.949,9.460,-1.587
0.132,-0.611,-0.962,8.179,8.118,-2.686
0.132,-0.667,-0.961,-0.977,-0.671,-3.113
0.125,-0.674,-0.935,-6.592,-5.859,-3.784
0.093,-0.661,-0.838,-16.663,-15.076,-4.395
0.086,-0.620,-0.796,-19.836,-16.357,-3.479
0.067,-0.552,-0.774,-15.076,-12.268,0.610
0.070,-0.553,-0.771,-8.850,-9.460,2.014
0.067,-0.557,-0.773,-3.357,-6.897,4.272
0.066,-0.565,-0.788,1.892,-1.587,6.714
0.072,-0.570,-0.798,0.977,1.099,5.981
0.091,-0.563,-0.849,-1.465,4.822,5.798
0.102,-0.549,-0.881,-1.648,5.859,6.287
0.109,-0.539,-0.906,-1.282,5.554,6.592
0.106,-0.535,-0.928,-0.366,2.563,6.897
0.098,-0.536,-0.926,-1.160,0.244,6.897
0.104,-0.532,-0.910,-3.235,-2.441,5.615
0.095,-0.530,-0.917,-3.235,-2.808,5.493
0.085,-0.539,-0.925,-0.549,13.855,5.310
0.095,-0.595,-0.934,5.310,0.854,5.310
0.103,-0.604,-0.935,4.333,-0.427,5.676
0.108,-0.605,-0.931,-1.221,-4.517,6.592
0.102,-0.593,-0.922,-3.540,-6.836,7.385
0.089,-0.549,-0.892,-4.333,-11.108,11.658
0.080,-0.533,-0.875,-3.967,-13.000,13.062
0.068,-0.515,-0.828,-3.479,-13.672,11.841
0.060,-0.512,-0.813,-3.662,-11.902,10.498
0.067,-0.510,-0.814,-2.380,-6.775,8.667
0.079,-0.524,-0.818,-1.648,-5.066,7.568
0.079,-0.540,-0.863,-2.441,-3.662,7.996
0.094,-0.549,-0.865,-3.174,-3.784,8.850
0.106,-0.566,-0.880,-2.991,-5.676,11.902
0.126,-0.567,-0.899,-3.723,-7.263,14.465
0.127,-0.558,-0.894,-4.211,-8.911,16.113
0.109,-0.561,-0.866,-5.676,-12.451,16.235
0.105,-0.571,-0.857,-6.653,-12.512,15.930
0.107,-0.589,-0.867,-8.850,-11.475,16.052
0.107,-0.603,-0.880,-9.766,-11.353,16.174
0.125,-0.624,-0.895,-10.559,-12.634,17.883
0.124,-0.617,-0.890,-11.047,-13.855,21.118
0.154,-0.566,-0.891,-6.470,-16.907,28.320
0.146,-0.563,-0.873,-3.357,-19.287,30.518
0.143,-0.561,-0.850,-2.136,-22.522,33.508
0.126,-0.551,-0.815,-3.723,-23.010,32.043
0.123,-0.554,-0.805,-5.371,-23.132,29.968
0.126,-0.550,-0.798,-9.094,-21.912,26.611
0.123,-0.555,-0.794,-10.620,-20.752,26.733
0.137,-0.565,-0.793,-10.864,-18.982,27.954
0.168,-0.564,-0.811,-9.644,-16.052,30.029
0.228,-0.518,-0.845,-7.141,-16.174,31.250
0.234,-0.502,-0.853,-5.981,-18.066,31.799
0.231,-0.501,-0.851,-5.432,-21.973,29.968
0.231,-0.505,-0.845,-7.263,-23.682,27.161
0.235,-0.507,-0.840,-10.071,-24.963,24.109
0.239,-0.513,-0.824,-16.357,-25.574,17.273
0.233,-0.520,-0.811,-18.250,-26.367,13.977
0.264,-0.590,-0.787,-21.240,-28.625,12.146
0.266,-0.601,-0.804,-23.804,-29.419,13.550
0.270,-0.598,-0.820,-27.832,-31.372,12.695
0.308,-0.615,-0.828,-28.992,-33.752,11.902
0.318,-0.615,-0.820,-33.691,-38.818,13.428
0.316,-0.596,-0.789,-36.133,-40.833,13.794
0.281,-0.627,-0.747,-37.170,-42.358,14.526
0.296,-0.645,-0.733,-34.485,-40.771,17.212
0.299,-0.670,-0.716,-30.090,-34.851,24.353
0.312,-0.720,-0.694,-25.085,-33.142,28.015
0.318,-0.705,-0.689,-26.672,-31.372,31.311
0.354,-0.623,-0.717,-25.085,-25.818,33.020
0.390,-0.592,-0.740,-19.531,-24.170,31.372
0.440,-0.585,-0.732,-9.521,-25.696,30.334
0.437,-0.584,-0.721,-9.949,-28.137,31.860
0.428,-0.578,-0.718,-11.536,-28.564,29.419
0.431,-0.623,-0.697,-16.235,-28.992,22.949
0.422,-0.654,-0.695,-18.494,-29.663,21.240
0.435,-0.650,-0.700,-23.254,-30.518,20.874
0.450,-0.618,-0.692,-23.682,-31.067,21.606
0.451,-0.569,-0.664,-18.799,-32.715,24.231
0.457,-0.568,-0.655,-8.362,-31.677,23.865
0.463,-0.602,-0.652,-6.165,-31.128,23.560
0.467,-0.612,-0.647,-7.812,-30.701,22.156
0.478,-0.641,-0.630,-10.193,-31.494,21.057
0.490,-0.610,-0.589,-16.907,-34.607,22.278
0.479,-0.553,-0.561,-19.653,-35.400,25.269
0.464,-0.486,-0.522,-15.503,-32.288,27.527
0.463,-0.503,-0.532,-10.254,-28.931,26.062
0.494,-0.522,-0.571,-5.249,-25.269,21.179
0.501,-0.514,-0.561,-5.310,-25.452,18.127
0.520,-0.498,-0.516,-5.005,-25.757,17.517
0.520,-0.495,-0.506,-5.493,-24.231,15.137
1.813,0.440,0.272,-25.696,39.307,-115.906
1.737,0.515,0.228,-5.188,37.964,-103.394
1.684,0.629,0.084,58.594,36.499,-70.801
1.687,0.731,0.015,86.487,36.255,-54.260
1.433,0.830,-0.071,121.826,24.414,-30.029
1.143,0.768,-0.051,128.418,13.367,-34.790
0.385,0.587,0.048,115.601,6.653,-82.947
0.028,0.484,0.080,105.103,21.484,-118.103
-0.773,0.292,0.026,75.195,65.491,-211.365
-1.102,-0.218,-0.125,66.772,84.839,-255.188
-1.385,-0.695,-0.890,88.196,142.090,-248.657
-1.334,-0.518,-1.261,125.732,161.621,-202.271
-1.758,-0.419,-1.692,239.136,127.258,-116.089
-2.126,-0.784,-1.722,269.165,109.741,-103.088
-2.307,-1.855,-1.750,218.201,130.554,-155.029
-1.987,-2.276,-1.893,102.844,167.419,-252.014
-0.898,-2.715,-2.185,58.594,163.330,-275.024
-0.369,-2.961,-2.178,31.067,92.041,-229.126
0.296,-3.173,-1.869,24.170,37.109,-164.307
0.056,-2.246,-1.150,-24.719,-61.890,-7.812
-0.216,-1.626,-0.809,-47.607,-97.656,52.063
-0.446,-0.432,-0.295,-40.588,-107.849,112.488
-0.393,-0.003,-0.151,20.630,-61.523,128.235
-0.102,0.473,-0.220,64.453,-30.090,124.939
0.025,0.402,-0.542,116.882,25.879,84.717
0.184,0.253,-0.622,108.215,48.584,57.068
0.248,0.167,-0.846,80.383,26.123,-4.395
0.226,-0.118,-0.975,34.729,26.001,-31.006
0.201,-0.464,-1.004,-2.014,40.710,-59.021
0.191,-0.557,-1.007,-11.963,33.813,-64.087
0.200,-0.682,-0.980,-11.963,19.226,-46.448
0.195,-0.666,-0.969,-5.249,18.799,-29.541
0.214,-0.604,-0.924,15.564,15.991,-2.991
0.213,-0.574,-0.908,21.423,10.254,3.967
0.229,-0.473,-0.911,21.973,3.967,13.123
0.228,-0.428,-0.917,19.043,2.563,12.024
0.236,-0.425,-0.941,16.663,3.845,5.249
0.237,-0.442,-0.946,13.611,-1.587,-1.526
0.218,-0.436,-0.922,5.615,-3.357,-3.784
0.206,-0.428,-0.879,-0.671,-5.432,-10.742
0.189,-0.442,-0.799,-2.197,-4.517,-13.916
0.214,-0.451,-0.800,1.648,0.488,-13.855
0.206,-0.478,-0.814,4.761,2.258,-12.695
0.216,-0.520,-0.859,6.897,4.272,-7.874
0.216,-0.532,-0.868,5.188,1.770,-4.822
0.206,-0.510,-0.876,2.380,-2.502,-0.183
0.211,-0.497,-0.885,3.601,-3.235,2.014
0.206,-0.507,-0.826,6.653,-7.141,4.944
0.199,-0.503,-0.792,5.737,-8.301,7.507
0.192,-0.469,-0.752,1.099,-7.263,7.324
0.187,-0.450,-0.755,2.014,-3.662,5.920
0.195,-0.470,-0.801,5.005,-2.380,4.883
0.196,-0.508,-0.826,4.761,-2.380,4.517
0.192,-0.526,-0.825,2.625,-2.869,4.761
0.199,-0.506,-0.807,-2.258,-4.395,5.249
0.187,-0.510,-0.795,-2.136,-4.272,7.263
0.208,-0.502,-0.816,7.690,0.000,12.390
0.215,-0.513,-0.830,11.230,0.854,14.404
0.220,-0.518,-0.841,7.568,0.183,15.930
0.226,-0.497,-0.855,3.357,-0.488,14.771
0.257,-0.440,-0.835,-3.418,-2.686,10.437
0.257,-0.411,-0.816,-4.700,-3.784,9.155
0.274,-0.391,-0.859,-1.160,-2.808,9.644
0.294,-0.397,-0.885,2.869,-4.028,10.803
0.281,-0.419,-0.914,5.371,-5.371,11.292
0.279,-0.422,-0.875,2.563,-8.423,9.644
0.281,-0.450,-0.866,1.221,-10.620,8.484
0.265,-0.457,-0.867,0.977,-4.333,5.737
0.266,-0.478,-0.871,-0.183,-2.930,3.601
0.268,-0.492,-0.860,-3.723,-2.869,0.122
0.263,-0.495,-0.862,-5.188,-2.930,-0.488
0.261,-0.502,-0.863,-6.836,-4.395,-1.343
0.260,-0.510,-0.862,-5.981,-4.700,1.221
0.258,-0.516,-0.874,-3.540,-4.333,3.235
0.258,-0.527,-0.883,-1.770,-4.761,5.432
0.252,-0.551,-0.864,-3.235,-5.798,5.676
0.251,-0.537,-0.832,-8.911,-6.714,5.676
0.247,-0.530,-0.823,-11.597,-6.226,5.188
0.242,-0.536,-0.817,-15.381,-4.639,5.066
0.235,-0.542,-0.817,-17.822,-4.456,5.188
0.221,-0.546,-0.821,-24.780,-4.028,6.836
0.221,-0.532,-0.830,-25.146,-5.005,9.277
0.230,-0.525,-0.808,-22.644,-5.737,10.559
0.237,-0.518,-0.795,-15.015,-4.944,19.287
0.239,-0.516,-0.815,-10.986,-4.517,24.109
0.252,-0.529,-0.841,-5.981,-5.859,29.175
0.267,-0.526,-0.838,-6.165,-8.972,30.823
0.244,-0.504,-0.822,-9.888,-10.376,30.151
0.242,-0.527,-0.803,-12.939,-10.925,27.893
0.240,-0.543,-0.807,-13.916,-10.864,27.161
0.248,-0.575,-0.820,-18.250,-10.315,26.306
0.259,-0.572,-0.831,-19.897,-10.620,26.672
0.274,-0.553,-0.804,-22.461,-13.550,28.625
0.266,-0.537,-0.787,-21.606,-14.465,34.790
0.254,-0.531,-0.770,-13.916,-13.123,38.147
0.251,-0.537,-0.761,-5.493,-11.047,43.640
0.251,-0.554,-0.754,-2.441,-8.667,46.082
0.280,-0.575,-0.785,2.258,-4.211,49.011
0.276,-0.601,-0.805,2.319,-3.296,50.171
0.295,-0.663,-0.820,-2.869,-4.089,52.612
0.300,-0.664,-0.815,-7.385,-5.981,53.467
0.308,-0.594,-0.793,-17.456,-10.498,54.993
0.315,-0.562,-0.791,-17.883,-12.024,54.871
0.324,-0.552,-0.774,-16.174,-14.709,54.077
0.355,-0.527,-0.786,-15.320,-13.062,55.298
0.368,-0.510,-0.792,-14.771,-11.780,55.847
0.383,-0.551,-0.798,-12.390,-11.169,57.373
0.396,-0.559,-0.796,-13.428,-11.047,58.655
0.394,-0.536,-0.783,-21.484,-11.475,62.805
0.405,-0.488,-0.797,-24.780,-11.536,61.401
0.439,-0.474,-0.806,-27.222,-14.771,56.702
0.498,-0.467,-0.823,-33.447,-17.883,49.988
0.508,-0.442,-0.848,-36.255,-19.531,48.279
0.517,-0.456,-0.845,-39.612,-26.917,41.199
0.524,-0.466,-0.820,-41.260,-30.518,38.696
0.527,-0.417,-0.799,-45.654,-36.377,37.842
0.523,-0.404,-0.788,-44.678,-38.147,37.170
0.547,-0.438,-0.729,-40.466,-41.565,36.133
0.538,-0.460,-0.698,-40.649,-43.396,39.124
-1.460,-0.625,-1.171,61.523,193.420,-196.045
-1.775,-0.605,-1.310,77.881,163.086,-163.879
-2.140,-0.524,-1.515,144.348,158.386,-121.216
-2.099,-0.599,-1.639,173.828,178.833,-124.146
-1.851,-1.039,-1.895,181.458,216.736,-155.884
-1.754,-1.180,-1.984,156.006,221.497,-167.664
-1.572,-1.332,-2.088,99.792,196.106,-178.955
-1.377,-1.414,-2.202,87.158,165.894,-162.964
-0.743,-1.764,-2.291,78.430,140.381,-149.231
-0.531,-1.919,-2.173,64.209,102.112,-129.089
-0.433,-1.872,-1.636,20.752,16.785,-67.017
-0.505,-1.636,-1.376,-6.165,-31.494,3.296
-0.583,-1.078,-1.061,-5.127,-42.664,27.771
-0.619,-0.682,-0.783,8.545,-60.364,60.120
-0.604,-0.504,-0.671,12.390,-55.725,68.115
-0.498,-0.214,-0.616,16.846,-44.617,76.050
-0.455,-0.121,-0.636,19.226,-37.170,75.623
-0.427,-0.083,-0.669,24.353,-5.981,47.363
-0.392,-0.158,-0.768,17.944,25.024,7.568
-0.338,-0.340,-0.797,8.667,30.151,-3.357
-0.320,-0.413,-0.889,-2.197,31.677,-10.803
-0.309,-0.432,-0.935,-2.563,31.799,-10.132
-0.247,-0.416,-0.978,-0.122,25.330,-4.456
-0.245,-0.406,-0.926,-0.488,11.047,0.732
-0.284,-0.365,-0.896,-1.160,7.019,1.282
-0.331,-0.380,-0.844,-1.099,5.310,-1.709
-0.327,-0.401,-0.854,0.488,7.874,-3.845
-0.278,-0.438,-0.940,2.380,15.686,-5.371
-0.265,-0.452,-0.994,2.197,17.761,-4.395
-0.232,-0.453,-1.083,1.160,14.282,-1.160
-0.225,-0.430,-1.067,-0.122,9.583,0.610
-0.267,-0.412,-0.965,-3.540,-3.601,3.723
-0.295,-0.406,-0.915,-3.906,-6.653,4.639
-0.328,-0.436,-0.842,-0.549,-6.531,4.822
-0.337,-0.458,-0.832,2.808,-3.296,3.906
-0.328,-0.484,-0.829,4.028,-1.038,2.686
-0.308,-0.490,-0.828,3.052,2.075,2.747
-0.308,-0.466,-0.836,2.075,3.784,3.723
-0.306,-0.408,-0.860,0.244,6.592,3.723
-0.304,-0.387,-0.859,-0.305,5.798,3.052
-0.312,-0.376,-0.851,0.183,4.700,3.174
-0.313,-0.382,-0.860,1.892,5.066,3.662
-0.296,-0.408,-0.890,4.639,6.348,3.296
-0.288,-0.417,-0.910,4.883,6.226,2.625
-0.280,-0.424,-0.928,3.784,3.662,2.625
-0.280,-0.428,-0.925,3.723,1.465,2.991
-0.297,-0.445,-0.902,3.540,-1.587,3.845
-0.302,-0.446,-0.891,2.258,-2.380,4.578
-0.300,-0.447,-0.876,1.587,-2.258,4.761
-0.290,-0.433,-0.873,2.441,-1.648,5.310
-0.288,-0.421,-0.874,2.869,-1.770,5.554
-0.288,-0.407,-0.877,2.747,-1.709,5.066
-0.290,-0.407,-0.880,2.686,-1.282,4.395
-0.287,-0.426,-0.884,3.174,-1.404,4.456
-0.291,-0.431,-0.897,2.869,-1.709,4.700
-0.279,-0.456,-0.913,1.953,-2.502,3.784
-0.275,-0.474,-0.916,-0.610,-4.028,3.296
-0.266,-0.479,-0.922,-2.808,-4.639,4.028
-0.268,-0.433,-0.905,-5.859,-7.446,4.822
-0.271,-0.411,-0.887,-7.019,-8.972,5.188
-0.285,-0.389,-0.875,-5.798,-9.705,7.202
-0.277,-0.393,-0.884,-3.967,-8.545,8.118
-0.263,-0.430,-0.905,-3.784,-8.789,8.972
-0.250,-0.444,-0.931,-4.028,-9.949,11.475
-0.243,-0.448,-0.926,-4.089,-11.414,11.841
-0.247,-0.451,-0.911,-4.639,-14.648,14.160
-0.245,-0.436,-0.907,-5.127,-15.625,16.052
-0.238,-0.409,-0.898,-6.165,-17.029,18.250
-0.239,-0.398,-0.898,-7.202,-18.860,18.982
-0.240,-0.404,-0.884,-8.240,-20.203,19.043
-0.245,-0.433,-0.858,-10.742,-21.484,19.165
-0.243,-0.461,-0.855,-13.672,-20.020,21.362
-0.220,-0.486,-0.899,-15.686,-19.653,23.315
-0.207,-0.481,-0.929,-19.348,-22.400,24.475
-0.193,-0.486,-0.929,-20.691,-24.841,23.621
-0.187,-0.498,-0.926,-24.963,-28.931,23.499
-0.182,-0.500,-0.922,-27.649,-31.433,24.597
-0.151,-0.501,-0.907,-31.250,-34.546,26.245
-0.147,-0.504,-0.896,-34.180,-36.621,27.222
-0.179,-0.516,-0.863,-40.161,-38.574,28.442
-0.180,-0.531,-0.842,-44.434,-35.156,29.175
-0.181,-0.535,-0.835,-45.776,-34.058,29.602
-0.168,-0.496,-0.848,-36.621,-32.227,27.405
-0.142,-0.522,-0.848,-26.978,-31.372,25.269
-0.105,-0.601,-0.849,-11.780,-32.349,27.649
-0.089,-0.635,-0.857,-9.033,-33.142,31.799
-0.067,-0.671,-0.872,-12.817,-37.109,38.452
-0.057,-0.680,-0.876,-18.616,-40.466,38.818
-0.046,-0.694,-0.879,-34.058,-49.500,38.635
-0.037,-0.675,-0.861,-48.523,-58.044,39.734
-0.047,-0.662,-0.838,-53.162,-60.730,41.199
-0.048,-0.630,-0.808,-54.077,-60.913,45.715
-0.040,-0.618,-0.794,-48.279,-57.983,46.509
0.015,-0.635,-0.782,-28.992,-49.377,45.837
0.036,-0.656,-0.778,-16.052,-43.396,44.922
0.054,-0.724,-0.772,-14.404,-41.504,44.678
0.097,-0.785,-0.822,-20.508,-38.635,44.800
0.133,-0.787,-0.840,-27.161,-39.734,46.082
0.149,-0.751,-0.798,-36.926,-48.035,49.377
0.154,-0.725,-0.774,-39.246,-52.307,46.997
0.148,-0.691,-0.719,-43.762,-57.129,43.152
0.148,-0.690,-0.692,-46.448,-55.420,36.194
0.168,-0.687,-0.689,-45.532,-52.368,34.119
0.186,-0.682,-0.691,-35.828,-46.326,33.142
0.200,-0.708,-0.688,-29.053,-44.189,36.072
0.228,-0.681,-0.668,-19.409,-41.626,44.373
0.244,-0.644,-0.643,-16.541,-39.978,47.058
0.268,-0.641,-0.619,-12.390,-37.292,46.997
0.288,-0.665,-0.614,-14.893,-33.752,42.664
0.296,-0.664,-0.628,-17.090,-31.738,40.283
0.319,-0.670,-0.668,-18.250,-29.175,36.377
0.329,-0.664,-0.692,-16.296,-29.358,34.912
0.364,-0.661,-0.684,-9.521,-31.677,34.119
0.373,-0.660,-0.667,-7.812,-33.142,34.851
0.385,-0.635,-0.641,-9.033,-35.339,32.166
0.388,-0.639,-0.628,-13.245,-36.987,24.109
0.378,-0.657,-0.592,-15.564,-37.598,20.874
0.370,-0.675,-0.582,-16.418,-34.424,19.226
0.363,-0.707,-0.572,-15.259,-32.654,19.836
-1.662,-0.899,-1.455,100.342,157.776,-193.054
-1.766,-0.804,-1.711,114.441,158.752,-150.696
-2.095,-0.692,-1.442,175.598,131.165,-122.009
-2.377,-0.858,-1.236,206.116,127.808,-126.953
-2.257,-1.294,-1.622,240.967,207.275,-132.874
-1.853,-2.072,-2.434,217.957,257.019,-164.368
-1.007,-2.524,-2.872,181.641,242.371,-164.917
-0.176,-2.852,-3.219,74.097,148.621,-131.958
-0.000,-2.577,-2.805,7.202,68.604,-105.347
-0.463,-1.789,-1.593,-83.191,-65.491,-31.799
-0.676,-1.344,-1.046,-92.224,-96.985,29.602
-0.699,-0.530,-0.461,-56.335,-82.886,50.293
-0.603,-0.264,-0.335,-12.634,-33.752,77.209
-0.308,0.191,-0.282,5.493,-14.221,83.862
-0.115,0.313,-0.549,43.091,19.165,66.345
-0.076,0.247,-0.705,52.185,32.104,49.927
-0.036,0.113,-0.895,41.931,40.405,20.935
-0.056,0.022,-0.938,29.785,36.743,5.371
-0.110,-0.203,-0.944,3.906,29.419,-18.005
-0.127,-0.307,-0.981,-5.310,29.846,-23.376
-0.129,-0.473,-1.025,-14.893,23.437,-25.757
-0.133,-0.525,-1.010,-16.479,15.625,-23.865
-0.148,-0.547,-0.935,-13.916,3.906,-14.648
-0.147,-0.479,-0.910,-4.211,3.540,-2.563
-0.121,-0.469,-0.913,0.977,4.211,0.610
-0.114,-0.418,-0.946,8.118,5.981,3.052
-0.095,-0.400,-0.978,10.132,7.690,2.991
-0.060,-0.420,-1.001,10.681,5.798,1.038
-0.054,-0.437,-1.007,9.399,3.296,0.671
-0.052,-0.468,-1.000,5.005,-0.427,0.305
-0.052,-0.484,-0.992,2.808,-2.319,1.831
-0.068,-0.489,-0.954,-0.427,-5.005,3.662
-0.058,-0.480,-0.948,-0.488,-5.493,7.690
-0.061,-0.444,-0.965,0.427,-6.165,8.362
-0.054,-0.445,-0.961,1.526,-7.690,7.690
-0.059,-0.465,-0.911,1.221,-13.428,7.202
-0.068,-0.468,-0.881,-0.793,-14.648,7.263
-0.091,-0.486,-0.849,-4.150,-12.695,5.920
-0.095,-0.501,-0.851,-4.700,-10.071,5.005
-0.079,-0.511,-0.903,-5.249,-4.395,4.578
-0.061,-0.515,-0.931,-5.249,-2.441,5.249
-0.053,-0.489,-0.953,-4.639,-2.686,7.690
-0.032,-0.446,-0.962,-0.427,-4.822,12.451
-0.042,-0.448,-0.954,1.282,-6.531,13.550
-0.048,-0.456,-0.947,1.526,-6.897,12.756
-0.046,-0.449,-0.960,-1.465,-4.517,9.888
-0.035,-0.441,-0.965,-2.136,-3.723,8.179
-0.014,-0.461,-0.970,-0.854,-3.540,6.897
-0.016,-0.455,-0.971,-0.977,-4.333,7.812
-0.009,-0.438,-0.947,-0.427,-6.592,8.850
-0.006,-0.430,-0.920,-0.305,-7.996,8.606
0.003,-0.395,-0.898,-1.160,-8.606,8.606
-0.004,-0.388,-0.853,-1.526,-10.010,7.568
-0.002,-0.396,-0.851,-0.732,-9.277,6.836
0.007,-0.416,-0.869,1.526,-6.592,5.310
0.002,-0.440,-0.875,2.136,-6.348,3.906
0.012,-0.467,-0.879,1.648,-6.165,3.052
0.011,-0.480,-0.879,0.610,-6.287,3.418
0.007,-0.482,-0.878,-0.366,-6.592,4.578
0.006,-0.471,-0.889,-1.282,-6.897,6.165
0.001,-0.474,-0.893,-1.831,-7.263,6.042
0.010,-0.483,-0.896,-3.296,-7.812,5.127
0.018,-0.487,-0.884,-4.395,-8.240,4.211
0.015,-0.457,-0.869,-7.874,-8.240,5.127
0.024,-0.443,-0.865,-7.446,-8.057,5.798
0.027,-0.446,-0.857,-3.906,-9.399,7.812
0.023,-0.460,-0.880,-2.502,-9.399,10.559
0.031,-0.447,-0.923,-1.526,-10.315,13.794
0.042,-0.453,-0.935,-1.953,-10.681,13.245
0.049,-0.481,-0.953,-4.456,-13.367,10.864
0.047,-0.484,-0.947,-7.263,-14.771,10.132
0.039,-0.476,-0.926,-14.038,-16.907,9.216
0.046,-0.472,-0.922,-17.761,-18.494,8.423
0.057,-0.469,-0.911,-19.165,-19.592,8.484
0.054,-0.467,-0.895,-21.851,-21.851,9.277
0.061,-0.450,-0.881,-21.057,-22.156,10.437
0.074,-0.465,-0.871,-15.442,-21.667,13.916
0.085,-0.473,-0.866,-13.794,-22.095,15.686
0.082,-0.483,-0.854,-14.587,-23.743,17.639
0.085,-0.489,-0.859,-31.250,-23.682,17.700
0.094,-0.494,-0.858,-18.311,-22.888,17.029
0.101,-0.491,-0.856,-21.973,-22.339,16.174
0.108,-0.491,-0.858,-23.926,-22.156,15.625
0.112,-0.480,-0.889,-28.442,-23.010,13.184
0.110,-0.484,-0.892,-29.724,-24.536,11.597
0.112,-0.498,-0.880,-27.527,-28.137,11.841
0.109,-0.516,-0.875,-24.841,-28.687,13.428
0.106,-0.540,-0.872,-20.203,-28.564,16.296
0.109,-0.549,-0.865,-18.188,-28.687,15.442
0.124,-0.588,-0.843,-18.555,-28.137,14.404
0.129,-0.606,-0.827,-23.804,-28.564,12.024
0.130,-0.605,-0.810,-27.405,-28.870,11.292
0.131,-0.609,-0.785,-34.241,-28.809,8.545
0.128,-0.596,-0.781,-41.260,-26.733,5.127
0.130,-0.580,-0.792,-40.161,-24.902,4.761
0.159,-0.595,-0.808,-25.940,-21.606,9.094
0.178,-0.623,-0.804,-16.846,-20.386,13.062
0.199,-0.660,-0.804,-8.606,-19.653,21.667
0.200,-0.663,-0.800,-9.216,-20.508,24.048
0.200,-0.651,-0.762,-14.709,-22.461,23.071
0.215,-0.623,-0.752,-20.264,-21.484,22.339
0.231,-0.600,-0.744,-22.156,-20.630,21.912
0.245,-0.570,-0.721,-24.170,-20.203,21.790
0.253,-0.555,-0.726,-24.048,-19.348,22.156
0.287,-0.538,-0.776,-23.560,-19.714,17.883
0.306,-0.560,-0.795,-24.475,-21.790,13.672
0.313,-0.605,-0.788,-34.912,-29.602,4.700
0.305,-0.599,-0.768,-58.594,-35.461,-3.357
0.279,-0.601,-0.703,-49.805,-35.583,-4.333
0.283,-0.633,-0.643,-39.917,-32.715,-2.258
0.277,-0.668,-0.627,-33.325,-30.029,0.854
0.281,-0.723,-0.598,-26.306,-24.292,6.531
0.291,-0.734,-0.590,-25.391,-21.362,8.484
0.301,-0.714,-0.623,-23.437,-16.968,11.841
0.314,-0.730,-0.637,-18.616,-15.503,14.587
0.346,-0.749,-0.646,-18.005,-16.113,17.334
0.351,-0.721,-0.644,-18.555,-16.968,20.630
0.341,-0.657,-0.603,-17.456,-18.860,25.024
0.339,-0.646,-0.583,-14.954,-18.616,25.574
-1.702,-1.662,-0.650,123.474,53.467,-116.516
-1.797,-1.847,-0.814,121.887,40.771,-95.276
-1.382,-1.535,-1.118,110.352,57.617,-107.178
-1.101,-0.949,-1.214,89.233,69.519,-128.601
-1.118,-0.848,-1.161,90.637,60.669,-132.874
-1.369,-1.469,-1.104,106.995,41.321,-153.076
-1.370,-2.077,-1.114,103.210,47.424,-155.762
-1.153,-2.904,-1.339,48.889,67.505,-132.141
-0.932,-2.968,-1.431,9.827,70.618,-115.295
-0.463,-2.355,-1.271,-36.926,44.373,-67.810
-0.403,-1.830,-1.003,-40.405,17.761,-30.518
-0.432,-0.892,-0.779,-4.211,-7.812,33.875
-0.388,-0.560,-0.688,19.775,-11.230,52.002
-0.339,-0.341,-0.600,49.500,-10.681,48.462
-0.261,-0.434,-0.588,34.851,-12.207,29.846
-0.253,-0.508,-0.548,19.348,-12.756,16.968
-0.264,-0.663,-0.512,-3.662,-4.517,-0.244
-0.294,-0.716,-0.509,-4.639,3.906,-3.845
-0.252,-0.774,-0.529,2.502,11.963,-5.310
-0.252,-0.810,-0.539,8.118,12.817,-4.272
-0.231,-0.838,-0.575,13.489,13.916,-2.380
-0.216,-0.759,-0.596,9.949,14.526,2.258
-0.193,-0.728,-0.598,7.385,14.221,3.357
-0.185,-0.708,-0.606,4.150,15.076,1.465
-0.180,-0.708,-0.633,2.747,16.968,0.977
-0.153,-0.693,-0.733,0.183,18.677,-0.977
-0.151,-0.717,-0.754,-0.610,17.517,-3.601
-0.189,-0.757,-0.740,-3.418,10.132,-5.005
-0.197,-0.738,-0.695,-6.042,4.333,-3.723
-0.203,-0.725,-0.691,-4.700,3.540,-3.113
-0.195,-0.748,-0.663,-1.648,2.380,-1.343
-0.187,-0.748,-0.650,-0.488,2.197,-0.061
-0.198,-0.729,-0.636,1.160,2.258,1.160
-0.199,-0.731,-0.636,2.625,1.770,-0.854
-0.213,-0.755,-0.635,2.991,1.831,-1.770
-0.216,-0.797,-0.633,1.526,3.174,-3.113
-0.219,-0.816,-0.630,0.244,3.662,-3.418
-0.221,-0.840,-0.631,-0.549,5.188,-2.075
-0.227,-0.842,-0.629,0.610,5.310,-0.122
-0.212,-0.824,-0.641,4.700,6.226,3.662
-0.212,-0.810,-0.646,4.150,6.165,4.028
-0.219,-0.761,-0.658,-1.404,3.845,3.418
-0.214,-0.731,-0.660,-3.296,2.319,2.502
-0.228,-0.714,-0.657,-2.625,1.587,1.770
-0.239,-0.717,-0.651,-1.221,2.747,0.244
-0.225,-0.738,-0.688,1.038,4.333,-0.305
-0.204,-0.775,-0.754,3.967,5.066,-0.183
-0.188,-0.791,-0.779,4.578,4.578,0.305
-0.156,-0.769,-0.813,3.784,1.160,2.991
-0.161,-0.750,-0.798,1.892,-2.502,4.333
-0.182,-0.732,-0.730,-2.258,-8.667,3.540
-0.189,-0.739,-0.672,-3.845,-10.254,2.808
-0.188,-0.740,-0.660,-2.930,-9.644,2.869
-0.171,-0.751,-0.670,1.038,-7.141,3.235
-0.165,-0.764,-0.679,2.747,-6.042,3.113
-0.147,-0.796,-0.692,4.150,-5.188,3.357
-0.142,-0.793,-0.695,0.427,-7.080,3.418
-0.146,-0.764,-0.679,-1.587,-7.935,3.418
-0.150,-0.722,-0.652,-2.319,-8.789,3.418
-0.151,-0.713,-0.642,-1.709,-8.667,3.296
-0.145,-0.710,-0.629,0.427,-7.568,2.747
-0.142,-0.710,-0.632,1.404,-6.897,2.808
-0.138,-0.724,-0.641,3.662,-5.554,2.075
-0.145,-0.754,-0.623,3.723,-6.287,1.282
-0.150,-0.759,-0.624,4.028,-5.981,1.709
-0.141,-0.762,-0.632,3.357,-5.493,1.526
-0.135,-0.771,-0.633,2.991,-5.676,1.892
-0.151,-0.752,-0.631,-0.427,-6.165,3.967
-0.148,-0.743,-0.628,-0.671,-5.859,3.906
-0.150,-0.756,-0.623,0.793,-5.249,2.686
-0.150,-0.766,-0.627,1.587,-4.822,2.563
-0.135,-0.755,-0.640,2.136,-4.395,2.930
-0.124,-0.747,-0.639,3.540,-4.456,4.150
-0.125,-0.740,-0.628,3.418,-4.700,4.150
-0.117,-0.726,-0.626,1.770,-4.395,3.296
-0.118,-0.714,-0.625,1.038,-4.211,2.930
-0.114,-0.717,-0.622,2.014,-4.028,2.258
-0.113,-0.726,-0.618,3.113,-3.906,2.258
-0.129,-0.748,-0.615,3.784,-2.869,2.991
-0.128,-0.760,-0.620,2.991,-2.075,1.770
-0.125,-0.765,-0.636,2.197,0.000,1.648
-0.126,-0.771,-0.638,2.563,0.122,1.892
-0.122,-0.768,-0.644,2.563,0.305,2.319
-0.108,-0.750,-0.646,2.441,0.305,2.380
-0.107,-0.738,-0.644,2.747,0.061,2.808
-0.112,-0.720,-0.642,3.906,-0.061,2.808
-0.114,-0.720,-0.644,4.456,0.366,2.869
-0.115,-0.724,-0.655,3.967,0.916,1.892
-0.117,-0.724,-0.662,2.869,1.282,0.916
-0.125,-0.723,-0.666,1.282,0.854,-0.305
-0.130,-0.724,-0.671,1.404,0.610,-0.488
-0.128,-0.728,-0.686,3.540,0.671,-0.305
-0.139,-0.741,-0.683,4.272,-0.977,0.122
-0.139,-0.757,-0.687,4.456,-1.526,-0.244
-0.151,-0.785,-0.683,3.174,-1.831,1.526
-0.166,-0.784,-0.687,1.282,-2.197,2.686
-0.164,-0.779,-0.683,0.061,-2.563,4.395
-0.170,-0.784,-0.678,0.916,-2.869,6.653
-0.188,-0.805,-0.672,1.404,-3.235,7.935
-0.199,-0.819,-0.668,1.160,-3.357,11.475
-0.203,-0.824,-0.673,0.977,-3.113,13.550
-0.207,-0.825,-0.685,1.526,-3.479,18.250
-0.201,-0.826,-0.687,2.136,-3.540,21.423
-0.198,-0.843,-0.694,2.380,-3.296,28.381
-0.204,-0.855,-0.690,1.404,-2.991,31.982
-0.219,-0.864,-0.651,-3.662,-0.732,40.344
-0.237,-0.871,-0.646,-5.859,1.648,45.776
-0.232,-0.820,-0.684,-6.042,6.287,57.190
-0.214,-0.778,-0.728,-3.235,6.165,59.509
-0.133,-0.756,-0.769,6.775,-1.282,51.025
-0.113,-0.775,-0.762,9.705,-4.944,46.509
-0.116,-0.787,-0.731,6.653,-8.606,43.701
-0.118,-0.789,-0.723,0.549,-8.057,40.222
-0.120,-0.801,-0.702,-0.732,-8.240,38.269
-0.129,-0.834,-0.698,-2.625,-8.789,38.818
-0.111,-0.850,-0.729,-2.930,-9.155,41.199
-0.065,-0.839,-0.772,-1.343,-12.512,48.218
-0.043,-0.833,-0.785,-1.099,-19.226,52.979
-0.035,-0.846,-0.784,-3.113,-22.766,54.443
-1.609,-1.264,-1.006,12.451,39.612,-273.376
-1.776,-1.363,-1.313,3.174,58.777,-283.203
-1.498,-1.573,-1.889,68.909,112.061,-255.737
-1.248,-1.736,-2.129,121.399,112.915,-231.873
-0.930,-2.044,-2.090,152.039,41.077,-190.796
-0.992,-2.088,-1.406,75.378,-36.499,-171.814
-1.021,-2.042,-1.045,36.682,-54.443,-165.955
-0.878,-1.953,-0.482,5.432,-54.504,-135.132
-0.717,-1.922,-0.542,10.864,-37.354,-109.375
-0.718,-1.851,-0.366,41.565,-4.456,-38.940
-0.562,-1.548,-0.454,51.453,34.607,11.597
-0.433,-1.291,-0.495,45.593,44.678,39.856
-0.342,-0.760,-0.656,54.443,49.988,86.426
-0.233,-0.615,-0.707,68.604,49.927,91.919
-0.108,-0.513,-0.809,79.895,47.058,81.360
-0.084,-0.501,-0.843,68.787,43.884,69.763
-0.049,-0.406,-0.815,31.860,32.593,39.734
-0.041,-0.381,-0.771,16.296,24.475,25.513
-0.038,-0.413,-0.786,3.296,13.611,7.690
-0.027,-0.463,-0.813,2.808,11.047,3.479
-0.038,-0.555,-0.858,1.892,5.188,1.160
-0.023,-0.620,-0.778,0.061,3.296,2.136
-0.108,-0.581,-0.739,-1.099,1.892,1.038
-0.084,-0.628,-0.706,8.545,13.794,-0.366
-0.075,-0.658,-0.730,16.052,15.564,7.080
-0.071,-0.690,-0.842,26.794,16.968,10.071
-0.058,-0.691,-0.866,26.489,17.639,10.681
-0.028,-0.621,-0.886,15.015,12.451,6.592
-0.024,-0.603,-0.874,9.033,11.169,3.235
-0.029,-0.605,-0.860,3.052,7.385,-1.160
-0.043,-0.625,-0.858,2.380,5.310,-2.197
-0.049,-0.635,-0.855,-0.244,3.540,-2.014
-0.044,-0.627,-0.853,0.000,2.502,-1.404
-0.057,-0.637,-0.841,2.747,0.183,-1.282
-0.094,-0.650,-0.806,1.160,-2.319,-2.014
-0.106,-0.659,-0.779,-0.793,-2.319,-2.686
-0.113,-0.633,-0.769,-4.211,-1.038,-2.991
-0.099,-0.611,-0.766,-3.662,0.122,-2.319
-0.097,-0.611,-0.741,1.526,0.793,-0.244
-0.101,-0.619,-0.737,6.104,5.554,2.197
-0.090,-0.628,-0.772,7.446,7.446,2.930
-0.067,-0.616,-0.800,8.118,8.057,2.380
-0.055,-0.614,-0.818,8.728,8.362,2.441
-0.040,-0.621,-0.833,8.728,6.226,2.197
-0.046,-0.627,-0.829,6.714,4.028,2.075
-0.056,-0.611,-0.796,1.709,1.831,1.404
-0.061,-0.598,-0.797,1.038,2.014,1.160
-0.054,-0.616,-0.824,5.371,4.333,1.404
-0.050,-0.635,-0.843,7.202,4.211,1.709
-0.038,-0.642,-0.875,7.263,2.808,1.709
-0.041,-0.653,-0.867,6.897,0.305,1.221
-0.071,-0.680,-0.828,5.859,-3.540,2.197
-0.079,-0.683,-0.801,4.944,-4.150,2.930
-0.095,-0.635,-0.756,1.526,-3.235,4.883
-0.099,-0.598,-0.749,1.648,-2.136,5.981
-0.092,-0.602,-0.771,7.751,1.038,6.348
-0.079,-0.614,-0.828,10.315,3.296,7.690
-0.057,-0.614,-0.823,8.911,2.380,7.629
-0.058,-0.602,-0.819,4.883,-1.221,7.446
-0.075,-0.560,-0.777,3.174,-2.258,7.385
-0.095,-0.538,-0.743,3.113,-1.282,6.287
-0.088,-0.532,-0.743,3.784,0.916,5.371
-0.078,-0.536,-0.755,4.211,2.258,2.563
-0.046,-0.557,-0.800,3.723,4.272,0.916
-0.037,-0.561,-0.813,2.014,4.028,-1.526
-0.030,-0.568,-0.831,0.916,2.808,-2.563
-0.024,-0.589,-0.836,2.136,1.831,-2.991
-0.036,-0.616,-0.825,1.526,-0.610,-2.014
-0.032,-0.625,-0.820,1.587,-1.160,-0.793
-0.031,-0.622,-0.824,1.953,-1.038,0.305
-0.035,-0.609,-0.821,2.258,-1.953,1.709
-0.036,-0.614,-0.817,2.930,-2.380,1.587
-0.033,-0.611,-0.817,3.784,-2.075,2.258
-0.035,-0.612,-0.818,3.723,-2.014,2.258
-0.035,-0.615,-0.831,3.967,-1.709,1.831
-0.035,-0.614,-0.818,1.160,-3.357,1.526
-0.048,-0.599,-0.802,0.122,-4.150,1.343
-0.058,-0.591,-0.786,-0.549,-3.357,0.244
-0.058,-0.590,-0.781,-1.160,-2.930,0.610
-0.060,-0.593,-0.778,-0.854,-1.709,0.793
-0.059,-0.599,-0.791,-0.916,-0.977,0.854
-0.047,-0.602,-0.792,-1.038,-0.854,0.793
-0.052,-0.602,-0.785,-0.671,-1.648,1.282
-0.057,-0.598,-0.795,-0.549,-0.793,1.709
-0.045,-0.611,-0.808,1.404,-0.488,2.075
-0.047,-0.617,-0.817,2.014,-1.282,3.052
-0.046,-0.629,-0.806,1.465,-2.380,3.296
-0.045,-0.625,-0.804,0.183,-2.441,3.113
-0.056,-0.632,-0.810,-1.221,-3.174,2.991
-0.064,-0.633,-0.791,-3.357,-3.723,3.357
-0.062,-0.631,-0.789,-3.784,-3.418,4.333
-0.053,-0.628,-0.808,-3.723,-2.991,6.653
-0.051,-0.641,-0.818,-3.601,-3.113,8.545
-0.044,-0.661,-0.835,-5.859,-3.967,9.644
-0.035,-0.674,-0.834,-10.925,-7.263,13.123
-0.039,-0.676,-0.835,-13.550,-10.071,15.564
-0.057,-0.665,-0.844,-16.113,-14.526,20.447
-0.062,-0.662,-0.827,-15.991,-15.930,22.095
-0.073,-0.658,-0.800,-14.282,-16.296,26.123
-0.096,-0.637,-0.790,-14.038,-15.503,29.053
-0.099,-0.618,-0.772,-10.864,-11.169,29.114
-0.095,-0.621,-0.765,-8.545,-7.874,28.076
-0.080,-0.627,-0.769,-9.277,-6.470,26.733
-0.059,-0.644,-0.786,-14.648,-6.165,22.217
-0.038,-0.658,-0.812,-17.517,-6.653,20.630
0.012,-0.693,-0.875,-20.569,-11.536,23.621
0.040,-0.729,-0.912,-20.813,-23.499,34.363
0.082,-0.753,-0.908,-22.095,-29.785,41.870
0.090,-0.748,-0.884,-23.315,-38.025,51.819
0.063,-0.737,-0.818,-27.954,-39.246,53.772
0.053,-0.734,-0.785,-30.518,-35.156,51.025
0.057,-0.716,-0.783,-31.982,-32.288,46.204
0.091,-0.706,-0.767,-28.931,-27.039,37.903
0.117,-0.705,-0.769,-25.940,-24.109,35.767
0.149,-0.715,-0.763,-24.597,-24.048,35.217
0.156,-0.768,-0.778,-28.809,-27.283,34.058
0.162,-0.782,-0.778,-31.738,-29.175,34.485
0.178,-0.824,-0.737,-36.072,-33.875,36.743
0.172,-0.843,-0.700,-39.429,-35.950,38.330
-1.406,-0.615,-0.954,21.301,87.219,-171.753
-1.585,-0.469,-0.991,41.565,71.106,-161.255
-2.162,-1.040,-1.055,129.150,50.232,-155.701
-2.297,-1.574,-1.099,166.626,65.796,-158.569
-1.944,-2.527,-1.246,177.185,83.313,-156.006
-1.629,-2.666,-1.259,134.033,86.792,-122.681
-1.332,-2.310,-1.076,17.273,69.885,-99.243
-1.096,-1.580,-1.090,-9.827,63.538,-49.133
-0.861,-1.319,-1.213,17.700,69.641,-31.006
-0.450,-1.042,-1.307,68.787,53.101,-1.587
-0.336,-0.935,-1.222,73.547,34.302,12.634
-0.322,-0.708,-0.928,42.664,-5.188,30.884
-0.416,-0.584,-0.851,26.245,-17.395,35.400
-0.446,-0.479,-0.921,18.555,-10.986,31.555
-0.350,-0.504,-0.992,19.531,-8.850,9.094
-0.254,-0.622,-1.012,10.254,-12.207,6.836
-0.253,-0.640,-0.949,6.592,-2.686,11.108
-0.247,-0.568,-0.833,9.399,-2.930,14.099
-0.237,-0.517,-0.790,26.062,-6.226,19.470
-0.232,-0.537,-0.769,35.828,-5.920,20.813
-0.219,-0.603,-0.810,48.035,-0.305,20.935
-0.185,-0.634,-0.854,47.791,3.906,2.808
-0.115,-0.670,-0.890,31.616,4.822,10.620
-0.119,-0.672,-0.878,19.531,-1.587,5.676
-0.127,-0.661,-0.889,3.052,-2.197,5.127
-0.128,-0.616,-0.911,-1.953,-4.395,5.005
-0.150,-0.610,-0.880,-2.319,-6.042,4.395
-0.186,-0.637,-0.801,0.305,-8.667,3.906
-0.193,-0.652,-0.783,2.380,-7.141,4.333
-0.191,-0.676,-0.769,3.906,-3.113,4.395
-0.185,-0.695,-0.770,-0.061,-1.648,2.930
-0.182,-0.723,-0.764,-4.028,-2.197,2.747
-0.192,-0.703,-0.732,-7.874,-3.357,4.639
-0.201,-0.694,-0.726,-6.470,-3.113,5.493
-0.183,-0.683,-0.724,-1.343,-1.282,6.775
-0.168,-0.667,-0.734,1.160,-0.366,10.742
-0.141,-0.609,-0.733,3.052,0.427,11.841
-0.144,-0.584,-0.720,3.235,15.564,11.902
-0.159,-0.548,-0.734,3.601,2.014,10.437
-0.141,-0.535,-0.763,2.502,5.188,5.005
-0.132,-0.551,-0.763,2.197,5.066,2.930
-0.141,-0.597,-0.773,3.784,4.395,0.427
-0.132,-0.620,-0.781,4.150,4.700,-0.977
-0.131,-0.651,-0.783,3.296,3.540,-0.671
-0.133,-0.661,-0.792,3.418,2.686,0.610
-0.132,-0.637,-0.801,1.404,0.488,2.625
-0.134,-0.623,-0.785,0.671,-0.305,3.174
-0.148,-0.611,-0.762,2.136,-1.099,3.723
-0.144,-0.615,-0.756,2.563,0.977,3.174
-0.137,-0.614,-0.782,3.418,2.258,2.319
-0.130,-0.629,-0.816,6.348,3.235,1.221
-0.122,-0.640,-0.828,7.446,2.991,0.427
-0.117,-0.642,-0.832,6.348,1.770,0.305
-0.125,-0.646,-0.830,4.822,0.427,0.122
-0.128,-0.662,-0.815,3.052,-1.831,-0.488
-0.130,-0.674,-0.809,3.052,-2.686,-0.244
-0.137,-0.666,-0.776,6.287,-3.662,3.052
-0.137,-0.664,-0.756,15.320,-3.357,7.385
-0.151,-0.659,-0.730,19.714,-2.075,9.827
-0.129,-0.665,-0.786,26.001,3.723,12.268
-0.100,-0.667,-0.823,25.940,5.005,11.780
-0.103,-0.649,-0.846,17.883,1.343,11.475
-0.106,-0.631,-0.834,14.038,-1.038,11.230
-0.115,-0.591,-0.801,9.888,-3.906,10.254
-0.117,-0.586,-0.793,9.094,-4.395,9.338
-0.111,-0.589,-0.807,7.141,-4.089,8.484
-0.106,-0.586,-0.819,5.493,-5.127,7.202
-0.098,-0.564,-0.825,2.075,-5.859,6.897
-0.092,-0.555,-0.814,2.319,-7.751,6.958
-0.097,-0.555,-0.810,1.892,-8.362,7.263
-0.103,-0.545,-0.810,-0.183,-8.728,6.592
-0.107,-0.550,-0.802,-1.953,-9.216,5.005
-0.121,-0.558,-0.774,-5.005,-10.071,2.502
-0.123,-0.562,-0.765,-5.249,-8.667,2.197
-0.120,-0.580,-0.758,-2.808,-7.935,2.930
-0.115,-0.598,-0.772,-0.610,-6.226,4.395
-0.108,-0.595,-0.778,-0.549,-5.737,5.066
-0.103,-0.600,-0.792,-0.671,-5.493,5.554
-0.093,-0.617,-0.793,-1.465,-6.104,6.531
-0.089,-0.623,-0.797,-1.038,-6.226,8.118
-0.081,-0.646,-0.812,0.061,-7.202,11.902
-0.081,-0.662,-0.823,-0.488,-7.751,13.855
-0.080,-0.671,-0.831,-3.784,-10.010,18.616
-0.076,-0.665,-0.827,-7.874,-12.878,23.560
-0.081,-0.653,-0.804,-11.047,-14.160,25.696
-0.100,-0.657,-0.777,-16.663,-15.503,29.114
-0.108,-0.662,-0.763,-18.250,-15.381,31.372
-0.108,-0.673,-0.711,-15.625,-10.864,39.246
-0.092,-0.695,-0.699,-8.484,-2.075,50.781
-0.067,-0.692,-0.730,-4.639,2.930,57.556
-0.042,-0.619,-0.856,2.686,6.958,66.711
-0.029,-0.589,-0.893,6.287,4.456,64.941
0.007,-0.584,-0.907,7.446,-7.141,53.040
0.020,-0.593,-0.884,5.615,-12.451,48.706
0.011,-0.643,-0.838,-0.793,-21.484,42.542
0.002,-0.667,-0.811,-5.310,-25.085,40.222
-0.007,-0.715,-0.790,-16.785,-28.931,40.466
-0.006,-0.722,-0.768,-22.156,-28.625,43.701
0.015,-0.732,-0.750,-20.996,-27.832,46.326
0.039,-0.689,-0.766,-15.930,-26.367,51.575
0.037,-0.675,-0.752,-12.756,-26.184,53.040
0.043,-0.673,-0.716,-5.859,-23.254,53.162
0.044,-0.675,-0.712,-4.517,-19.958,52.246
0.057,-0.657,-0.740,-5.798,-13.367,48.340
0.067,-0.700,-0.777,-8.484,-10.376,42.603
0.119,-0.708,-0.782,-11.902,-10.132,41.077
0.109,-0.679,-0.757,-23.499,-11.658,43.396
0.103,-0.648,-0.757,-25.757,-10.803,44.739
0.124,-0.579,-0.789,-21.484,-8.301,40.710
0.148,-0.575,-0.790,-17.151,-8.362,36.743
0.173,-0.611,-0.745,-9.155,-10.132,31.494
0.168,-0.643,-0.731,-7.751,-10.254,30.396
0.171,-0.677,-0.715,-11.047,-8.362,29.297
0.190,-0.671,-0.719,-13.916,-7.324,28.320
0.206,-0.635,-0.726,-16.479,-7.141,25.513
0.214,-0.634,-0.733,-16.357,-8.057,22.644
0.229,-0.634,-0.745,-14.709,-10.864,22.217
0.236,-0.621,-0.752,-10.193,-15.991,21.057
0.249,-0.622,-0.734,-6.592,-18.311,20.569
-2.138,-1.231,-0.769,134.521,15.808,-152.832
-2.448,-1.453,-0.749,94.910,21.240,-149.597
-2.206,-1.593,-0.892,65.613,86.792,-155.212
-1.941,-1.565,-1.082,85.999,118.591,-155.090
-1.651,-1.582,-1.289,142.395,136.475,-127.319
-1.128,-1.781,-1.603,157.410,124.634,-110.046
-0.936,-1.824,-1.698,135.681,83.252,-68.970
-0.631,-1.741,-1.595,108.276,59.143,-48.645
-0.605,-1.674,-1.465,41.565,15.076,-12.329
-0.607,-1.409,-1.265,8.789,2.686,-1.160
-0.584,-1.230,-1.150,-19.836,-5.188,5.737
-0.505,-0.802,-0.985,-45.837,-15.015,18.738
-0.430,-0.640,-0.910,-34.790,-18.066,26.367
-0.278,-0.424,-0.768,10.925,-28.076,45.959
-0.207,-0.353,-0.706,31.799,-31.555,54.443
-0.157,-0.304,-0.648,41.199,-38.940,56.702
-0.191,-0.208,-0.568,32.532,-37.720,50.049
-0.223,-0.189,-0.539,13.428,-18.555,22.644
-0.311,-0.267,-0.539,8.301,-5.066,5.066
-0.309,-0.368,-0.590,8.118,9.033,-10.864
-0.240,-0.599,-0.751,12.390,31.067,-28.381
-0.239,-0.695,-0.811,11.536,33.508,-29.419
-0.200,-0.801,-0.889,8.789,26.184,-20.508
-0.159,-0.786,-0.866,8.606,17.883,-12.207
-0.171,-0.672,-0.798,4.883,2.686,3.479
-0.198,-0.616,-0.749,-0.305,-1.343,6.104
-0.214,-0.573,-0.714,-3.967,-2.380,4.883
-0.220,-0.542,-0.711,-6.531,2.319,-2.136
-0.221,-0.555,-0.762,-6.653,6.775,-5.432
-0.195,-0.629,-0.823,-4.944,9.583,-13.916
-0.194,-0.674,-0.803,-3.662,7.446,-14.648
-0.208,-0.763,-0.801,4.883,4.395,-7.263
-0.204,-0.792,-0.823,7.751,2.869,-2.258
-0.189,-0.727,-0.894,4.944,0.793,6.226
-0.192,-0.693,-0.892,1.587,-2.563,6.409
-0.205,-0.682,-0.831,-3.418,-8.911,2.563
-0.216,-0.686,-0.790,-4.028,-10.132,2.502
-0.224,-0.669,-0.726,-1.404,-9.033,5.188
-0.227,-0.653,-0.704,1.282,-7.690,6.714
-0.237,-0.629,-0.689,10.132,-3.052,10.437
-0.230,-0.623,-0.710,15.747,0.732,12.207
-0.203,-0.661,-0.807,21.973,7.507,11.108
-0.187,-0.691,-0.841,18.860,7.996,8.789
-0.166,-0.677,-0.860,6.836,4.883,6.409
-0.158,-0.640,-0.838,2.136,2.075,6.104
-0.162,-0.613,-0.802,-0.244,-0.916,6.165
-0.165,-0.581,-0.757,2.625,-2.808,7.385
-0.157,-0.570,-0.749,5.188,-2.502,7.751
-0.177,-0.578,-0.735,4.883,-1.831,5.920
-0.177,-0.584,-0.735,4.761,-0.793,4.578
-0.168,-0.594,-0.747,5.127,3.174,2.502
-0.157,-0.612,-0.811,4.456,3.662,2.014
-0.144,-0.619,-0.828,3.296,0.854,0.732
-0.142,-0.606,-0.815,-1.038,-1.648,1.099
-0.150,-0.586,-0.778,-1.831,-4.028,2.136
-0.171,-0.582,-0.755,-0.549,-4.822,2.319
-0.189,-0.606,-0.750,2.380,-3.784,2.747
-0.188,-0.610,-0.760,2.625,-2.441,2.869
-0.180,-0.610,-0.796,1.343,-0.793,1.282
-0.168,-0.606,-0.811,0.977,-1.221,0.122
-0.168,-0.606,-0.810,-0.122,-2.441,0.366
-0.174,-0.606,-0.794,-0.366,-3.540,1.404
-0.172,-0.608,-0.782,-0.549,-3.174,1.404
-0.156,-0.598,-0.798,-2.197,-2.319,1.587
-0.156,-0.585,-0.803,-2.380,-2.563,1.709
-0.155,-0.588,-0.805,-0.610,-3.784,0.916
-0.156,-0.599,-0.783,0.305,-4.395,-0.122
-0.156,-0.620,-0.778,0.732,-4.028,-0.244
-0.149,-0.624,-0.787,1.770,-3.174,0.244
-0.138,-0.616,-0.803,2.930,-2.441,0.610
-0.131,-0.618,-0.817,3.784,-3.357,1.038
-0.131,-0.625,-0.813,3.418,-4.333,1.221
-0.135,-0.641,-0.796,1.099,-5.676,2.136
-0.143,-0.649,-0.792,-1.892,-6.348,3.540
-0.148,-0.647,-0.787,-2.563,-6.470,3.784
-0.154,-0.648,-0.777,-3.357,-7.507,3.479
-0.160,-0.654,-0.764,-2.747,-7.324,3.723
-0.162,-0.655,-0.763,-1.038,-6.653,5.493
-0.162,-0.651,-0.766,-0.305,-6.531,6.348
-0.166,-0.649,-0.771,-0.122,-6.104,7.324
-0.160,-0.650,-0.779,-0.366,-5.859,7.629
-0.148,-0.643,-0.790,-1.709,-5.798,8.240
-0.146,-0.640,-0.794,-4.333,-6.836,8.362
-0.150,-0.623,-0.797,-5.737,-7.263,7.812
-0.153,-0.623,-0.781,-7.812,-7.935,5.859
-0.156,-0.630,-0.773,-7.935,-7.812,5.615
-0.162,-0.653,-0.766,-6.287,-6.653,6.592
-0.160,-0.672,-0.766,-5.432,-6.287,8.362
-0.156,-0.677,-0.772,-5.554,-6.165,9.888
-0.146,-0.672,-0.780,-5.371,-6.104,11.841
-0.138,-0.669,-0.786,-5.920,-6.409,12.573
-0.131,-0.659,-0.788,-9.338,-6.958,13.550
-0.125,-0.642,-0.788,-10.986,-7.751,13.123
-0.109,-0.599,-0.768,-13.367,-9.094,12.146
-0.115,-0.582,-0.753,-12.756,-9.766,13.062
-0.126,-0.581,-0.744,-9.399,-9.583,12.756
-0.129,-0.592,-0.739,-8.179,-9.155,12.085
-0.129,-0.618,-0.726,-9.338,-7.935,9.521
-0.132,-0.631,-0.724,-13.123,-6.287,7.874
-0.128,-0.636,-0.745,-14.282,-5.371,7.507
-0.119,-0.633,-0.750,-14.160,-5.737,6.470
-0.115,-0.638,-0.739,-12.146,-5.920,7.019
-0.104,-0.646,-0.741,-5.005,-5.676,10.864
-0.099,-0.663,-0.754,-1.770,-4.822,12.817
-0.098,-0.676,-0.758,-2.075,-4.883,12.634
-0.099,-0.685,-0.784,-4.089,-4.700,11.658
-0.098,-0.699,-0.782,-5.432,-5.432,10.681
-0.098,-0.731,-0.770,-11.292,-6.836,9.766
-0.091,-0.731,-0.772,-16.907,-7.446,9.888
-0.086,-0.720,-0.769,-19.653,-8.179,10.010
-0.078,-0.696,-0.759,-17.761,-10.132,11.169
-0.074,-0.709,-0.743,-13.306,-11.169,12.817
-0.066,-0.756,-0.706,-5.310,-11.963,17.151
-0.070,-0.771,-0.694,-5.310,-11.597,19.226
-0.068,-0.767,-0.663,-11.169,-10.132,21.973
-0.061,-0.740,-0.652,-15.198,-7.385,24.353
-0.039,-0.716,-0.667,-14.771,-5.432,26.306
-0.028,-0.678,-0.697,-11.353,-4.395,25.024
0.006,-0.680,-0.723,-10.742,-5.676,21.484
1.491,0.707,-0.714,18.250,-51.392,-79.834
1.506,0.937,-0.829,5.554,-69.275,-83.740
1.312,1.175,-0.849,-80.994,-120.361,-106.934
1.131,1.263,-0.562,-143.738,-152.649,-124.084
0.667,1.024,0.214,-274.048,-202.454,-165.894
0.244,0.414,0.681,-336.609,-212.402,-191.956
-0.201,0.411,1.788,-263.184,-150.757,-226.074
-0.458,0.599,1.422,-124.573,-92.651,-224.243
-1.323,0.440,0.461,-50.964,-51.392,-223.816
-1.886,0.361,0.437,-146.240,-67.688,-215.027
-3.332,-0.288,0.714,-317.444,-145.142,-198.975
-3.849,-0.685,1.871,-300.110,-238.159,-299.622
-3.718,-2.639,3.088,-269.836,-257.690,-360.962
-3.508,-3.520,4.000,-118.347,-161.560,-347.412
-1.345,-4.000,4.000,-41.870,-113.220,-287.231
-1.074,-3.694,1.487,141.968,63.599,-132.446
-1.082,-3.085,-0.121,203.369,121.887,-49.133
-0.885,-0.935,-1.303,131.287,107.300,109.619
-0.673,0.182,-0.836,13.916,47.302,154.297
-0.262,1.311,0.633,-183.289,-44.128,142.517
-0.209,1.316,1.054,-185.364,-54.321,103.821
-0.167,0.678,1.258,-111.755,-47.058,1.282
-0.241,0.182,1.061,-71.777,-33.203,-36.865
-0.385,-0.565,0.593,-35.156,-12.329,-60.669
-0.451,-0.781,0.512,-40.955,-13.916,-56.030
-0.470,-1.053,0.534,-62.439,-22.217,-33.508
-0.480,-1.081,0.625,-61.768,-28.076,-9.399
-0.417,-0.833,0.683,-52.429,-26.672,-0.244
-0.377,-0.593,0.732,-47.241,-25.574,10.315
-0.349,-0.458,0.790,-47.302,-22.827,13.672
-0.311,-0.366,0.837,-52.612,-12.573,10.742
-0.305,-0.380,0.864,-45.898,-8.118,1.770
-0.302,-0.454,0.838,-40.588,-4.700,0.366
-0.315,-0.458,0.806,-33.508,-5.981,0.916
-0.287,-0.441,0.784,-28.503,-8.545,1.831
-0.266,-0.374,0.845,-28.870,-15.076,2.686
-0.261,-0.361,0.880,-31.006,-16.785,2.380
-0.245,-0.367,0.927,-29.907,-15.076,-0.977
-0.251,-0.411,0.931,-26.062,-13.672,-3.845
-0.250,-0.464,0.912,-17.029,-11.230,-7.202
-0.252,-0.485,0.907,-0.610,-9.827,-6.958
-0.283,-0.477,0.907,-14.771,-7.324,-5.554
-0.265,-0.452,0.921,-13.489,-5.432,-4.395
-0.266,-0.420,0.908,-13.428,-2.686,-2.930
-0.271,-0.429,0.887,-14.343,-3.418,-3.052
-0.267,-0.453,0.891,-15.869,-4.333,-1.709
-0.267,-0.494,0.884,-11.780,-7.080,-0.549
-0.264,-0.492,0.900,-9.583,-9.094,0.305
-0.256,-0.431,0.920,-9.583,-8.850,4.211
-0.259,-0.396,0.916,-9.094,-6.470,5.554
-0.254,-0.312,0.928,-3.784,-3.479,3.235
-0.256,-0.314,0.913,-3.784,-0.244,1.709
-0.261,-0.341,0.883,-3.662,3.174,-0.610
-0.256,-0.371,0.864,-2.380,2.808,-2.380
-0.263,-0.446,0.846,-2.197,0.549,-3.357
-0.266,-0.499,0.844,-1.221,-0.916,-1.038
-0.269,-0.514,0.827,-1.404,-1.465,0.854
-0.269,-0.500,0.830,-2.747,-2.136,7.019
-0.258,-0.391,0.845,-4.517,-1.892,10.132
-0.251,-0.282,0.851,-10.437,-1.404,11.047
-0.251,-0.262,0.852,-13.306,-2.075,9.338
-0.251,-0.288,0.876,-9.399,-3.540,1.892
-0.250,-0.318,0.887,-7.751,-3.296,-0.610
-0.259,-0.426,0.901,-12.451,-4.395,-2.625
-0.261,-0.451,0.918,-13.000,-3.357,-0.671
-0.262,-0.421,0.931,-9.827,0.549,4.395
-0.270,-0.375,0.897,-4.883,4.761,5.920
-0.306,-0.317,0.879,-4.333,5.371,5.371
-0.265,-0.305,0.871,-3.784,2.991,3.174
-0.265,-0.323,0.886,-3.540,0.549,1.648
-0.263,-0.363,0.900,-2.563,-0.916,0.122
-0.265,-0.385,0.902,-0.916,0.000,0.061
-0.276,-0.410,0.901,-3.418,-0.732,2.380
-0.278,-0.397,0.908,-3.784,1.160,6.287
-0.271,-0.358,0.896,-5.127,2.563,6.714
-0.272,-0.339,0.884,-6.104,1.770,6.531
-0.266,-0.333,0.872,-5.432,1.770,6.592
-0.258,-0.337,0.899,-4.333,0.061,5.676
-0.255,-0.346,0.913,-4.395,-0.061,5.554
-0.245,-0.373,0.928,-2.686,0.793,5.249
-0.244,-0.386,0.926,-1.892,2.380,5.981
-0.246,-0.391,0.915,-1.831,4.944,7.812
-0.246,-0.360,0.917,-1.709,5.615,8.911
-0.242,-0.312,0.897,-1.953,7.935,9.033
-0.249,-0.317,0.893,-2.380,7.202,7.690
-0.242,-0.310,0.874,0.427,6.775,5.859
-0.254,-0.318,0.870,0.366,4.456,4.456
-0.254,-0.358,0.876,-0.427,2.502,2.747
-0.252,-0.371,0.880,-1.709,-0.061,2.930
-0.252,-0.355,0.894,-0.732,0.244,3.784
-0.249,-0.325,0.881,-1.282,-0.671,2.930
-0.251,-0.329,0.885,-3.113,-0.854,3.052
-0.248,-0.349,0.912,-5.127,-1.099,3.601
-0.248,-0.352,0.934,-4.089,-0.427,3.723
-0.257,-0.371,0.944,-0.244,2.136,3.479
-0.258,-0.382,0.928,1.648,2.869,3.418
-0.263,-0.402,0.903,4.700,4.700,4.333
-0.270,-0.412,0.886,6.470,5.371,4.822
-0.269,-0.435,0.860,7.996,4.883,6.226
-0.273,-0.448,0.854,6.897,3.723,7.690
-0.267,-0.455,0.860,3.784,1.404,12.390
-0.279,-0.453,0.875,2.075,1.099,15.442
-0.265,-0.441,0.916,1.831,2.075,19.653
-0.273,-0.438,0.933,0.122,4.517,22.217
-0.264,-0.435,0.957,2.747,9.033,26.001
-0.265,-0.435,0.942,4.639,12.024,27.161
-0.290,-0.455,0.913,8.362,16.785,29.175
-0.285,-0.463,0.910,10.437,16.541,29.541
-0.284,-0.467,0.904,15.869,17.029,31.677
-0.292,-0.478,0.923,17.029,16.602,32.349
-0.299,-0.498,0.930,19.531,20.752,35.278
-0.293,-0.503,0.940,20.508,22.339,37.598
-0.281,-0.465,0.936,18.311,27.649,43.762
-0.280,-0.452,0.931,17.456,30.457,45.532
-0.273,-0.459,0.908,17.090,33.936,47.424
-0.274,-0.460,0.896,17.578,34.485,48.950
-0.272,-0.498,0.890,22.888,33.447,51.575
-0.263,-0.520,0.917,26.855,33.691,52.856
-0.271,-0.534,0.916,32.410,37.964,58.472
-2.010,-0.278,1.336,-159.302,-180.969,-143.311
-2.147,-0.605,1.602,-130.798,-190.613,-171.326
-2.103,-1.223,2.172,-118.591,-195.618,-189.087
-1.851,-1.443,2.409,-149.475,-176.208,-184.692
-1.028,-1.649,3.083,-156.738,-151.917,-182.861
-0.708,-1.734,2.591,-64.453,-43.335,-166.809
-0.745,-1.671,1.867,10.864,20.325,-143.555
-0.742,-1.342,0.768,82.153,71.533,-89.294
-0.680,-1.213,0.500,76.416,65.125,-56.641
-0.580,-0.771,0.467,21.423,38.025,17.090
-0.539,-0.497,0.552,-10.254,25.391,48.828
-0.529,0.017,0.788,-46.631,13.550,83.435
-0.496,0.263,0.859,-54.382,10.254,84.839
-0.381,0.437,0.886,-66.528,1.770,50.537
-0.348,0.356,0.824,-63.843,-0.732,26.428
-0.299,0.149,0.621,-48.157,-5.310,-6.165
-0.269,0.022,0.578,-48.340,-13.367,-16.174
-0.259,-0.273,0.746,-50.476,-32.898,-24.048
-0.232,-0.358,0.869,-51.880,-40.466,-20.142
-0.128,-0.378,1.068,-45.471,-42.419,-8.667
-0.115,-0.411,1.137,-37.415,-33.447,-2.991
-0.102,-0.430,1.272,-28.259,-24.841,1.099
-0.070,-0.306,1.215,-11.963,-5.127,5.859
-0.087,-0.245,1.153,-8.789,1.648,6.714
-0.124,-0.214,1.024,-3.784,9.888,3.601
-0.123,-0.219,0.993,-3.540,12.939,3.601
-0.118,-0.216,0.978,-4.822,11.047,6.470
-0.113,-0.224,0.999,-7.751,4.395,6.165
-0.117,-0.221,0.998,-10.498,0.366,7.935
-0.115,-0.178,1.007,-6.836,-3.113,8.362
-0.110,-0.117,0.981,-1.587,-6.653,4.700
-0.100,-0.140,0.989,-4.089,-8.545,-0.427
-0.099,-0.196,1.006,-4.517,-8.301,-1.099
-0.079,-0.207,1.010,-1.343,-5.798,-2.869
-0.077,-0.217,1.019,0.671,-4.700,-3.662
-0.078,-0.247,1.029,1.526,-1.221,-5.005
-0.082,-0.272,1.022,2.075,0.854,-5.188
-0.097,-0.274,0.985,3.540,3.052,-3.845
-0.104,-0.280,0.963,2.930,4.578,-2.563
-0.112,-0.253,0.939,4.150,2.075,0.732
-0.112,-0.228,0.933,1.892,0.793,3.479
-0.106,-0.203,0.969,-0.488,-1.099,4.333
-0.096,-0.190,0.976,-2.563,-2.441,3.723
-0.079,-0.202,0.977,-2.747,-4.272,0.793
-0.064,-0.212,0.990,-1.404,-4.028,0.793
-0.071,-0.242,0.991,-1.709,-4.333,0.549
-0.080,-0.263,0.994,-0.183,-3.845,1.831
-0.082,-0.281,0.994,-0.122,-2.869,3.479
-0.088,-0.288,0.981,-1.648,-0.244,8.362
-0.085,-0.275,0.973,-3.357,-0.366,10.620
-0.086,-0.226,0.967,-2.808,1.343,12.634
-0.094,-0.212,0.963,-4.028,0.427,12.024
-0.100,-0.176,0.926,-2.930,1.038,9.949
-0.098,-0.170,0.928,-2.014,-2.136,5.676
-0.094,-0.156,0.939,0.732,-3.052,3.784
-0.093,-0.164,0.942,0.183,-2.258,1.892
-0.096,-0.184,0.951,-0.427,-1.648,1.709
-0.093,-0.196,0.964,-1.587,-1.099,1.099
-0.083,-0.209,0.967,-2.380,-0.061,1.282
-0.090,-0.217,0.961,-2.441,1.404,0.916
-0.104,-0.231,0.922,-1.709,0.427,1.465
-0.107,-0.222,0.918,1.770,-0.549,2.686
-0.107,-0.184,0.920,1.343,-2.502,2.258
-0.117,-0.166,0.929,-2.014,-4.517,1.160
-0.118,-0.155,0.921,-1.709,-4.883,0.305
-0.122,-0.176,0.918,0.366,-4.150,-1.892
-0.124,-0.193,0.923,0.610,-4.822,-2.563
-0.115,-0.244,0.947,-3.662,-5.981,-1.709
-0.107,-0.251,0.971,-3.906,-5.493,-0.305
-0.096,-0.238,0.973,-1.892,-1.038,1.648
-0.101,-0.230,0.971,-2.991,-2.075,2.197
-0.107,-0.188,0.956,-3.479,-0.793,3.174
-0.107,-0.183,0.950,-2.075,-1.038,2.380
-0.105,-0.187,0.958,-1.953,-2.625,1.648
-0.090,-0.206,0.971,-0.977,-3.784,0.732
-0.084,-0.216,0.988,-0.549,-3.845,0.366
-0.080,-0.224,1.000,2.625,-2.136,0.061
-0.082,-0.231,0.994,2.686,-1.587,-0.122
-0.088,-0.227,0.978,0.916,-1.038,1.099
-0.087,-0.217,0.976,-3.235,-1.160,3.418
-0.084,-0.217,0.993,-2.991,-0.977,3.601
-0.083,-0.219,0.994,-3.418,-1.770,3.784
-0.084,-0.220,0.977,-2.686,-2.197,3.113
-0.091,-0.236,0.959,-1.221,-3.601,1.526
-0.089,-0.248,0.969,-1.892,-4.028,2.136
-0.077,-0.263,1.011,-2.747,-2.014,5.493
-0.084,-0.264,1.015,-3.296,-0.671,7.202
-0.080,-0.220,0.991,1.831,4.822,7.874
-0.081,-0.202,0.967,3.113,5.859,7.019
-0.093,-0.197,0.934,2.747,4.517,5.432
-0.091,-0.193,0.929,1.953,1.526,4.822
-0.093,-0.196,0.931,2.930,1.404,4.578
-0.094,-0.208,0.936,1.709,-1.831,3.662
-0.095,-0.220,0.943,2.747,-1.404,3.479
-0.093,-0.232,0.970,1.343,-2.930,3.967
-0.090,-0.227,0.975,2.380,-0.061,5.127
-0.114,-0.228,0.981,-0.549,3.113,6.775
-0.116,-0.234,0.985,-3.296,3.052,7.263
-0.118,-0.237,0.981,-2.136,2.625,7.080
-0.099,-0.237,0.986,1.526,4.333,7.202
-0.096,-0.234,0.984,3.845,4.822,6.958
-0.083,-0.251,1.001,5.859,4.822,7.751
-0.091,-0.248,1.000,7.568,7.812,9.888
-0.084,-0.250,1.003,10.864,10.193,11.414
-0.087,-0.246,1.007,12.146,12.695,12.146
-0.096,-0.253,1.024,16.357,16.296,13.184
-0.101,-0.261,1.003,19.897,22.766,15.320
-0.114,-0.265,0.994,23.621,27.588,17.334
-0.108,-0.275,0.950,26.367,37.476,22.034
-0.108,-0.262,0.937,26.184,42.236,24.475
-0.096,-0.253,0.896,18.738,46.936,28.015
-0.096,-0.276,0.895,12.268,48.645,29.785
-0.086,-0.266,0.922,6.653,51.880,30.029
-0.062,-0.268,0.956,5.554,62.622,30.457
-0.033,-0.249,0.955,7.324,69.458,29.907
-0.014,-0.256,0.967,5.005,80.444,28.748
-0.021,-0.269,0.961,2.563,82.764,27.649
-0.024,-0.286,0.955,1.465,86.975,25.940
-0.003,-0.284,0.979,3.784,89.661,25.452
-1.927,-0.544,1.432,-148.926,-147.217,-167.480
-2.108,-0.986,1.808,-164.124,-145.386,-160.950
-1.949,-1.442,2.239,-211.182,-119.263,-114.014
-1.652,-1.455,2.707,-246.948,-105.713,-142.944
-0.538,-1.687,2.816,-203.979,-94.238,-195.374
-0.123,-2.280,1.858,1.465,-38.025,-247.498
-0.246,-2.927,1.242,82.397,-5.127,-239.075
-0.848,-3.032,0.443,163.574,32.349,-123.413
-0.910,-1.957,-0.091,182.983,34.485,-1.587
-0.760,0.347,-0.323,90.393,7.446,178.650
-0.400,0.992,-0.077,-7.019,-15.015,201.721
0.103,1.357,0.827,-183.716,-64.453,162.537
0.131,1.176,1.139,-197.876,-69.092,112.793
0.090,0.543,1.285,-116.638,-45.837,-5.493
0.062,0.140,1.178,-69.031,-36.438,-49.072
-0.075,-0.678,1.068,-12.817,-23.254,-90.759
-0.138,-1.005,1.067,2.197,-7.385,-72.205
-0.196,-1.109,0.851,22.156,-1.404,-42.297
-0.188,-0.630,0.685,2.258,-0.305,16.418
-0.195,-0.437,0.669,-15.930,-4.211,33.630
-0.082,-0.115,0.831,-42.847,-15.686,44.250
-0.046,-0.052,0.904,-42.053,-21.851,37.598
0.005,-0.105,1.019,-29.236,-30.212,8.789
0.012,-0.215,1.037,-19.775,-29.297,-5.127
-0.002,-0.448,1.084,-7.019,-18.860,-14.465
-0.011,-0.495,1.082,-6.470,-10.864,-10.071
-0.046,-0.471,0.958,-5.981,1.099,1.038
-0.062,-0.433,0.852,-5.249,1.587,5.554
-0.069,-0.334,0.835,-5.432,-1.221,5.676
-0.068,-0.310,0.826,-9.644,-6.958,6.775
-0.032,-0.254,0.887,-12.329,-10.193,6.287
-0.002,-0.308,0.983,-15.930,-13.977,1.282
0.002,-0.363,1.026,-14.771,-13.123,-1.587
0.013,-0.425,1.050,-9.399,-4.639,-2.991
0.001,-0.459,1.017,-6.348,0.610,-2.747
-0.029,-0.468,0.955,-0.366,6.409,1.038
-0.032,-0.445,0.925,0.244,6.165,4.456
-0.039,-0.373,0.902,-1.709,5.249,6.104
-0.038,-0.316,0.876,-2.747,1.831,6.775
-0.030,-0.309,0.873,-2.747,-1.526,5.310
-0.007,-0.313,0.926,-2.319,-7.690,2.502
0.006,-0.320,0.963,-2.747,-9.460,2.136
0.010,-0.353,0.988,-3.723,-6.531,1.892
-0.001,-0.379,0.979,-3.235,-5.188,1.404
0.000,-0.398,0.972,-2.380,-3.113,1.831
-0.013,-0.407,0.965,-2.686,-0.977,3.174
-0.033,-0.409,0.925,-2.441,0.916,5.310
-0.033,-0.403,0.911,-2.808,0.366,6.104
-0.026,-0.368,0.922,-2.136,-0.671,8.484
-0.024,-0.354,0.930,-0.977,-1.038,9.155
-0.020,-0.324,0.941,0.000,-2.014,8.057
-0.020,-0.302,0.945,1.221,-1.343,6.348
-0.023,-0.293,0.926,1.343,-0.732,5.432
-0.028,-0.301,0.919,0.000,-0.793,4.517
-0.023,-0.321,0.920,-2.441,-1.404,3.723
-0.021,-0.323,0.921,-3.784,-1.526,4.211
-0.032,-0.328,0.928,-4.333,-1.953,4.211
-0.028,-0.311,0.943,-5.432,-2.686,4.150
-0.027,-0.310,0.950,-5.249,-2.991,3.784
-0.015,-0.309,0.971,-4.822,-2.197,3.052
-0.019,-0.319,0.965,-4.639,-1.099,2.869
-0.023,-0.333,0.946,-3.296,-0.183,2.502
-0.026,-0.324,0.942,-1.160,-0.122,2.625
-0.027,-0.295,0.933,0.000,-0.549,2.686
-0.029,-0.297,0.935,-1.892,-1.038,2.808
-0.027,-0.306,0.952,-3.845,-2.380,2.625
-0.016,-0.308,0.957,-4.028,-2.319,2.258
-0.016,-0.324,0.970,-4.272,-2.380,2.075
-0.015,-0.329,0.971,-3.296,-1.099,2.319
-0.017,-0.323,0.959,-2.563,-0.366,2.441
-0.023,-0.312,0.941,-2.319,0.488,2.808
-0.023,-0.307,0.933,-1.648,0.488,2.869
-0.024,-0.311,0.924,-0.610,-0.183,2.258
-0.021,-0.301,0.930,-0.488,-1.526,1.404
-0.016,-0.319,0.932,-1.831,-1.892,1.343
-0.011,-0.320,0.958,-2.930,-1.282,2.808
-0.010,-0.318,0.950,-2.808,0.183,3.174
-0.024,-0.315,0.935,-1.465,1.648,2.258
-0.011,-0.307,0.926,-0.183,1.709,1.709
-0.023,-0.305,0.907,-0.916,0.671,0.732
-0.017,-0.313,0.908,-1.892,-0.427,0.061
-0.009,-0.322,0.933,-3.052,-1.892,0.732
-0.010,-0.321,0.946,-3.174,-1.587,1.587
-0.012,-0.327,0.944,-1.709,-1.282,1.221
-0.016,-0.334,0.940,-0.610,-1.160,0.977
-0.009,-0.325,0.966,0.916,0.061,1.953
-0.011,-0.316,0.938,0.366,2.563,3.052
-0.022,-0.325,0.924,-0.061,2.686,3.052
-0.022,-0.319,0.912,0.000,1.343,4.150
-0.015,-0.314,0.909,-0.122,0.977,4.517
-0.020,-0.299,0.928,-1.465,0.305,6.165
-0.017,-0.287,0.928,-0.916,0.305,5.920
-0.016,-0.282,0.938,0.732,0.732,4.272
-0.021,-0.289,0.936,1.465,1.282,3.357
-0.024,-0.304,0.915,2.625,1.404,1.892
-0.025,-0.308,0.910,2.441,1.282,1.953
-0.025,-0.310,0.910,0.977,-0.427,2.502
-0.026,-0.325,0.927,0.305,-0.977,2.991
-0.024,-0.302,0.954,0.854,-0.305,4.639
-0.017,-0.295,0.929,2.258,0.061,4.089
-0.023,-0.277,0.923,2.502,0.854,3.418
-0.027,-0.276,0.921,2.502,0.366,2.869
-0.022,-0.293,0.941,1.587,-0.122,2.258
-0.022,-0.305,0.947,1.526,0.061,2.441
-0.020,-0.316,0.953,2.808,1.709,3.357
-0.021,-0.317,0.942,4.028,2.502,3.784
-0.022,-0.329,0.936,4.395,3.296,5.249
-0.024,-0.336,0.930,4.517,3.235,6.104
-0.018,-0.343,0.937,5.066,2.197,7.507
-0.014,-0.341,0.943,5.615,2.075,8.179
-0.008,-0.337,0.956,5.188,2.014,10.132
-0.006,-0.336,0.960,4.944,2.258,11.047
-0.002,-0.335,0.960,5.188,3.235,12.512
-0.005,-0.327,0.960,6.958,4.333,12.939
-0.004,-0.333,0.971,10.864,5.615,12.390
0.010,-0.336,0.984,13.611,6.714,12.329
0.019,-0.341,0.983,20.081,10.437,12.756
-0.002,-0.345,0.986,22.766,11.780,12.939
0.001,-0.379,0.966,23.499,14.893,14.404
-0.971,-1.015,1.503,-25.635,-158.386,-252.563
-1.121,-1.285,1.699,-53.040,-150.574,-239.746
-1.036,-1.244,1.660,-152.771,-117.798,-154.907
-0.772,-0.946,1.735,-192.749,-108.032,-114.380
-0.679,-1.006,1.837,-169.739,-102.844,-127.747
-0.635,-1.087,1.927,-83.008,-71.350,-162.598
-0.587,-1.105,1.707,-22.888,-37.170,-180.054
-0.444,-1.033,0.903,71.777,23.254,-191.711
-0.242,-1.242,0.427,93.689,32.532,-185.852
-0.693,-1.744,0.150,95.886,10.193,-142.456
-0.692,-1.527,0.005,100.464,-21.667,-3.845
-0.414,-0.677,0.239,-4.700,-55.908,63.110
-0.294,-0.326,1.067,-156.860,-98.328,143.982
-0.049,0.202,1.441,-189.270,-102.295,152.649
0.172,0.454,1.733,-157.654,-74.463,103.210
0.154,0.405,1.607,-106.873,-48.889,60.120
0.059,0.102,1.246,-19.104,-11.597,-9.399
0.033,-0.029,1.126,5.005,-2.014,-32.227
-0.041,-0.382,0.912,28.687,5.859,-55.176
-0.083,-0.514,0.849,34.058,4.456,-53.894
-0.132,-0.635,0.841,36.865,-3.235,-35.950
-0.110,-0.583,0.897,27.832,-6.714,-19.897
-0.003,-0.348,1.032,-4.761,-8.057,11.597
0.015,-0.268,1.055,-15.686,-8.728,18.005
0.031,-0.212,1.030,-20.752,-9.399,15.747
0.027,-0.193,1.024,-19.287,-9.521,12.878
0.022,-0.224,0.988,-15.625,-9.705,4.517
0.018,-0.245,0.987,-14.160,-10.376,2.258
0.009,-0.228,0.969,-7.812,-7.446,0.793
0.007,-0.227,0.948,-5.737,-8.362,-1.343
-0.001,-0.246,0.945,-4.700,-7.996,-3.723
0.021,-0.249,0.955,-4.639,-7.263,-4.211
0.012,-0.271,0.956,-6.348,-6.531,-4.150
0.017,-0.325,0.956,-8.179,-5.981,-4.211
0.028,-0.334,0.973,-8.301,-5.554,-4.028
0.035,-0.352,0.976,-7.019,-4.395,-3.052
0.028,-0.365,0.976,-7.080,-4.211,-2.441
0.046,-0.369,0.994,-6.287,-3.845,-0.305
0.055,-0.358,1.009,-10.498,-1.221,5.676
0.047,-0.339,1.000,-12.573,0.244,8.057
0.050,-0.316,0.985,-12.390,0.488,8.301
